"Time (s)","Linear Acceleration x (m/s^2)","Linear Acceleration y (m/s^2)","Linear Acceleration z (m/s^2)"
0.000000000E0,-2.545399904E0,2.284999847E0,-4.010999680E0
9.979688000E-3,-2.744699955E0,2.271499872E0,-3.783299923E0
1.999062500E-2,-2.741199970E0,2.195899963E0,-3.585399866E0
3.000156300E-2,-2.351300001E0,2.037999868E0,-3.471400023E0
3.998125000E-2,-1.763399959E0,1.594499946E0,-3.645099878E0
4.999375000E-2,-5.719999671E-1,-3.559999913E-2,-3.610699892E0
5.997187500E-2,-8.452999592E-1,2.552999854E-1,-2.898399830E0
6.998281300E-2,-1.886999965E0,-1.010399938E0,-2.336299896E0
7.999531300E-2,-9.778999686E-1,-1.529999971E0,-2.146299839E0
8.997500000E-2,3.003000021E-1,-1.303099990E0,-2.116099834E0
9.998593800E-2,8.758999705E-1,-1.737999916E-1,-1.985999942E0
1.099968750E-1,1.570299983E0,4.550999999E-1,-1.389699936E0
1.199765630E-1,2.679199934E0,-1.915999949E-1,-8.288999796E-1
1.299875000E-1,3.589900017E0,-2.005399942E0,-7.925999761E-1
1.399984380E-1,4.312200069E0,-3.722100019E0,-5.777999759E-1
1.499781250E-1,4.280499935E0,-4.523600101E0,-4.272999763E-1
1.599906250E-1,3.598500013E0,-4.396699905E0,-4.194999933E-1
1.700031250E-1,2.023999929E0,-3.634199858E0,1.363999993E-1
1.799812500E-1,5.999000072E-1,-2.706099987E0,1.591499925E0
1.899921880E-1,-3.288999796E-1,-1.862199903E0,3.090099812E0
1.999718750E-1,-5.054000020E-1,-1.240700006E0,4.094200134E0
2.099828130E-1,-6.815999746E-1,-8.653999567E-1,4.516999722E0
2.199937500E-1,-8.218999505E-1,-8.618999720E-1,5.050099850E0
2.299734380E-1,-1.292799950E0,-6.757999659E-1,5.966899872E0
2.399843750E-1,-1.599699974E0,-1.340999901E-1,6.768699646E0
2.499953130E-1,-1.191699982E0,6.506999731E-1,6.846999645E0
2.599750000E-1,-4.675999880E-1,1.547299981E0,6.319099903E0
2.699859380E-1,-4.493999779E-1,1.390599966E0,3.531699896E0
2.799984380E-1,-1.188999936E-1,1.322799921E0,8.743999600E-1
2.899765630E-1,1.413999945E-1,1.471099973E0,-1.270999908E-1
2.999890630E-1,-9.429999441E-2,1.691499949E0,5.722000003E-1
3.100000000E-1,-5.979999900E-1,1.970499992E0,2.089099884E0
3.199796880E-1,-9.722999930E-1,2.174099922E0,3.187500000E0
3.299906250E-1,-8.876000047E-1,1.830599904E0,3.695999861E0
3.400015630E-1,-6.499999762E-1,1.317899942E0,3.684199810E0
3.499812500E-1,-4.027999938E-1,4.721999764E-1,3.026199818E0
3.599937500E-1,-2.554999888E-1,1.582999974E-1,2.205299854E0
3.699734380E-1,-3.720000014E-2,-5.979999900E-2,1.233999968E0
3.799828130E-1,-1.919999905E-2,-2.185999900E-1,1.613999903E-1
3.899953130E-1,1.045999974E-1,-3.606999815E-1,-9.325999618E-1
3.999750000E-1,1.947999895E-1,-6.492999792E-1,-1.703099966E0
4.099859380E-1,4.599999785E-1,-8.606999516E-1,-2.353600025E0
4.199968750E-1,4.077000022E-1,-1.059899926E0,-2.967799902E0
4.299765630E-1,3.914999962E-1,-1.211599946E0,-3.427899837E0
4.399875000E-1,2.318999916E-1,-1.580500007E0,-3.266299963E0
4.499984380E-1,-5.499999970E-3,-1.399599910E0,-3.104799986E0
4.599781250E-1,4.763999879E-1,-1.299099922E0,-3.256999969E0
4.699906250E-1,4.779999852E-1,-1.216099977E0,-3.521499872E0
4.800015630E-1,7.576000094E-1,-1.267699957E0,-4.015999794E0
4.899796880E-1,5.500000119E-1,-1.471099973E0,-4.079699993E0
4.999921880E-1,3.957999945E-1,-1.466099977E0,-4.264100075E0
5.099718750E-1,4.227999747E-1,-1.513499975E0,-4.809899807E0
5.199828130E-1,4.461999834E-1,-1.759899974E0,-7.590199947E0
5.299937500E-1,-1.308200002E0,-1.484200001E0,-5.211599827E0
5.399734380E-1,-3.104399920E0,-1.497200012E0,-2.343499899E0
5.499843750E-1,-2.047399998E0,-1.389999986E0,-2.453999996E0
5.599968750E-1,-3.077999949E-1,-1.270200014E0,-3.968099833E0
5.699765630E-1,2.118999958E-1,-1.086099982E0,-4.654200077E0
5.799859380E-1,-4.807999730E-1,-2.953999937E-1,-4.773499966E0
5.899984380E-1,-1.969799995E0,9.167000055E-1,-4.198699951E0
5.999781250E-1,-2.569000006E0,1.663100004E0,-2.772799969E0
6.099890630E-1,-2.631399870E0,1.694599986E0,-1.649500012E0
6.200000000E-1,-2.631199837E0,1.210199952E0,-7.234999537E-1
6.299796880E-1,-2.406899929E0,1.351199985E0,-5.349000096E-1
6.399906250E-1,-2.817099810E0,1.672199965E0,-1.033499956E0
6.500015630E-1,-3.271799803E0,2.258699894E0,-1.887899995E0
6.599812500E-1,-3.620699883E0,2.012300014E0,-1.399899960E0
6.699937500E-1,-3.674000025E0,6.571999788E-1,3.219999745E-2
6.799734380E-1,-3.042999983E0,-5.586999655E-1,1.805699944E0
6.899843750E-1,3.299999982E-3,-1.111400008E0,2.161900043E0
6.999953130E-1,1.453199983E0,-9.370999932E-1,3.890499830E0
7.099750000E-1,1.663499951E0,-3.182999790E-1,3.477999926E0
7.199859380E-1,1.676299930E0,1.909999922E-2,3.381999969E0
7.299968750E-1,1.480299950E0,1.171000004E-1,2.746099949E0
7.399765630E-1,1.213400006E0,3.898999989E-1,2.395999908E0
7.499875000E-1,8.664999604E-1,7.093999982E-1,3.336799860E0
7.599984380E-1,1.116799951E0,6.326999664E-1,5.156399727E0
7.699781250E-1,1.320299983E0,6.089999676E-1,6.981400013E0
7.799906250E-1,1.432299972E0,4.122000039E-1,7.898999691E0
7.900015630E-1,1.351799965E0,-1.860000007E-2,7.491699696E0
7.999796880E-1,1.317499995E0,-5.587999821E-1,6.427899837E0
8.099921880E-1,1.494599938E0,-1.036899924E0,5.251199722E0
8.199718750E-1,1.917799950E0,-1.732699990E0,3.993199825E0
8.299828130E-1,2.313599825E0,-2.054899931E0,2.919999838E0
8.399937500E-1,2.732199907E0,-1.965299964E0,2.106999874E0
8.499734380E-1,2.857100010E0,-1.907899976E0,1.410499930E0
8.599843750E-1,2.821699858E0,-1.933499932E0,7.588999867E-1
8.699968750E-1,2.855799913E0,-2.051100016E0,2.716000080E-1
8.799765630E-1,2.502499819E0,-1.998199940E0,4.918999970E-1
8.899875000E-1,1.713699937E0,-1.617799997E0,5.562999845E-1
8.999984380E-1,1.032999992E0,-1.326499939E0,6.186999679E-1
9.099781250E-1,6.154999733E-1,-1.083599925E0,2.965999842E-1
9.199890630E-1,5.762999654E-1,-8.535999656E-1,1.081999987E-1
9.300000000E-1,5.831999779E-1,-5.224999785E-1,1.316999942E-1
9.399796880E-1,9.437999725E-1,-3.350999951E-1,-2.280000001E-1
9.499921880E-1,1.259899974E0,-2.760999799E-1,-8.592999578E-1
9.600015630E-1,1.492799997E0,2.569999918E-2,-1.805099964E0
9.699812500E-1,1.523899913E0,2.883000076E-1,-2.514600039E0
9.799937500E-1,1.162299991E0,6.599000096E-1,-3.260999918E0
9.899734380E-1,7.972999811E-1,8.014000058E-1,-3.771899939E0
9.999843750E-1,6.886000037E-1,9.057999849E-1,-4.046099663E0
1.009995313E0,5.432999730E-1,7.675999999E-1,-3.886399984E0
1.019975000E0,3.989000022E-1,8.865000010E-1,-3.605000019E0
1.029985938E0,3.300999999E-1,8.345999718E-1,-3.398299932E0
1.039996875E0,2.937999964E-1,9.941999912E-1,-3.146299839E0
1.049976563E0,2.540999949E-1,8.646000028E-1,-2.850600004E0
1.059989063E0,2.577999830E-1,7.597999573E-1,-2.550999880E0
1.070000000E0,3.165999949E-1,5.925999880E-1,-2.325399876E0
1.079979688E0,3.912999928E-1,5.631999969E-1,-2.410099983E0
1.089990625E0,5.572000146E-1,4.883999825E-1,-2.924700022E0
1.100001563E0,7.985000014E-1,3.682999909E-1,-3.356899977E0
1.109981250E0,1.181399941E0,2.805999815E-1,-3.390399933E0
1.119992188E0,1.367299914E0,7.199999690E-2,-3.145499945E0
1.129971875E0,1.267499924E0,-1.755999923E-1,-2.777999878E0
1.139982813E0,1.170499921E0,-2.967000008E-1,-2.716300011E0
1.149993750E0,9.326999784E-1,-5.970999599E-1,-2.336899996E0
1.159973438E0,6.897000074E-1,-9.511999488E-1,-1.959599972E0
1.169984375E0,2.759999931E-1,-1.427699924E0,-1.360899925E0
1.179996875E0,-1.089999974E-1,-1.675099969E0,-5.821999907E-1
1.189976563E0,-5.541999936E-1,-1.849499941E0,4.450999796E-1
1.199987500E0,-6.372999549E-1,-2.021899939E0,1.916599989E0
1.209998438E0,-3.386999965E-1,-1.916599989E0,3.210700035E0
1.219978125E0,-1.028999984E-1,-1.930699944E0,4.295000076E0
1.229989063E0,1.614999920E-1,-1.949299932E0,4.904599667E0
1.240000000E0,2.949999869E-1,-1.584399939E0,4.778399944E0
1.249979688E0,5.331999660E-1,-1.162699938E0,4.153999805E0
1.259990625E0,9.030999541E-1,-9.246999621E-1,3.426699877E0
1.270001563E0,1.098399997E0,-8.499000072E-1,2.863999844E0
1.279982813E0,1.092499971E0,-9.739999771E-1,2.343999863E0
1.289993750E0,8.946999907E-1,-1.128199935E0,1.940400004E0
1.299973438E0,7.032999992E-1,-9.804999828E-1,1.774099946E0
1.309984375E0,4.833999872E-1,-8.033999801E-1,1.803900003E0
1.319995313E0,3.551999927E-1,-4.834999740E-1,2.186199903E0
1.329975000E0,9.109999985E-2,-2.078999877E-1,2.603299856E0
1.339985938E0,-1.867999882E-1,2.389999852E-2,2.740200043E0
1.349996875E0,-5.522999763E-1,4.005999863E-1,2.910399914E0
1.359976563E0,-1.040499926E0,7.268999815E-1,2.956399918E0
1.369989063E0,-1.314399958E0,8.870999813E-1,3.118099928E0
1.380000000E0,-1.619300008E0,1.036700010E0,3.163199902E0
1.389979688E0,-1.722799897E0,1.029899955E0,3.248299837E0
1.399990625E0,-1.677699924E0,1.204699993E0,2.867799997E0
1.410001563E0,-1.411999941E0,1.363299966E0,2.493499994E0
1.419981250E0,-1.094900012E0,1.422500014E0,1.421399951E0
1.429993750E0,-7.669999599E-1,1.580299973E0,2.392999977E-1
1.439971875E0,-4.338999987E-1,1.566499949E0,-1.052500010E0
1.449982813E0,-2.029999942E-1,1.533899903E0,-2.259299994E0
1.459995313E0,-3.246999979E-1,1.337299943E0,-3.111599922E0
1.469973438E0,-5.600000024E-1,1.166000009E0,-3.765899897E0
1.479984375E0,-9.373999834E-1,9.795999527E-1,-4.262599945E0
1.489996875E0,-1.260800004E0,7.554999590E-1,-4.760799885E0
1.499976563E0,-1.633199930E0,5.412999988E-1,-4.754399776E0
1.509987500E0,-2.002399921E0,5.245999694E-1,-4.400399685E0
1.519998438E0,-2.142999887E0,5.433999896E-1,-3.812799931E0
1.529978125E0,-1.917999983E0,6.667000055E-1,-3.064199924E0
1.539989063E0,-1.880299926E0,8.478999734E-1,-2.661599874E0
1.550000000E0,-1.648999929E0,9.419999719E-1,-2.526900053E0
1.559979688E0,-1.349699974E0,1.022699952E0,-2.854199886E0
1.569992188E0,-1.096899986E0,9.009999633E-1,-3.370699883E0
1.580001563E0,-7.444999814E-1,8.453999758E-1,-3.760299921E0
1.589982813E0,-4.116999805E-1,7.019999623E-1,-4.102099895E0
1.599993750E0,-2.166000009E-1,5.985000134E-1,-3.889499903E0
1.609973438E0,-5.059999973E-2,5.733000040E-1,-3.514699936E0
1.619984375E0,1.829999872E-2,3.874000013E-1,-3.251399994E0
1.629995313E0,-9.099999443E-3,1.246999949E-1,-2.983999968E0
1.639975000E0,-8.309999853E-2,-2.171999961E-1,-2.633299828E0
1.649985938E0,-1.933999956E-1,-5.048999786E-1,-2.324100018E0
1.659996875E0,-5.469999909E-1,-8.422999978E-1,-1.632799983E0
1.669976563E0,-9.368999600E-1,-9.774999619E-1,-5.686999559E-1
1.679987500E0,-6.166999936E-1,-8.296999931E-1,5.133000016E-1
1.690000000E0,-2.561999857E-1,-8.561999798E-1,1.841399908E0
1.699979688E0,-1.620000005E-1,-9.390999675E-1,3.101999998E0
1.709990625E0,6.839999557E-2,-1.108099937E0,3.603799820E0
1.720001563E0,2.741999924E-1,-1.115399957E0,3.359400034E0
1.729981250E0,4.134999812E-1,-7.973999977E-1,2.343299866E0
1.739992188E0,4.553000033E-1,-4.362999797E-1,1.028599977E0
1.749971875E0,5.133999586E-1,1.175999939E-1,2.019999921E-1
1.759982813E0,5.475000143E-1,4.987999797E-1,3.621999919E-1
1.769995313E0,7.920999527E-1,6.529999971E-1,1.538299918E0
1.779975000E0,1.141999960E0,2.947999835E-1,3.130699873E0
1.789985938E0,1.360099912E0,-1.771999896E-1,4.392099857E0
1.799996875E0,1.234899998E0,-5.494999886E-1,4.469799995E0
1.809976563E0,1.196799994E0,-7.184000015E-1,3.605299950E0
1.819987500E0,1.089200020E0,-8.134999871E-1,2.351999998E0
1.829998438E0,1.257900000E0,-8.370999694E-1,9.460999966E-1
1.839978125E0,1.578899980E0,-6.372999549E-1,-6.149999797E-2
1.849990625E0,1.777300000E0,-8.623999953E-1,-3.637999892E-1
1.860000000E0,1.706599951E0,-1.415799975E0,-2.023999989E-1
1.869979688E0,1.412500024E0,-1.906799912E0,3.060999811E-1
1.879992188E0,9.386000037E-1,-2.301699877E0,8.892999887E-1
1.890003125E0,4.399999976E-1,-2.688299894E0,9.230999947E-1
1.899982813E0,1.420999914E-1,-2.766299963E0,3.725000024E-1
1.909993750E0,-1.251000017E-1,-2.705799818E0,-6.014999747E-1
1.919973438E0,-1.780999899E-1,-2.582599878E0,-1.450500011E0
1.929984375E0,-3.810000047E-2,-2.349200010E0,-1.942599893E0
1.939995313E0,3.271999955E-1,-2.126600027E0,-1.723799944E0
1.949975000E0,3.713999987E-1,-1.801099896E0,-9.897999763E-1
1.959985938E0,4.566999972E-1,-1.409600019E0,4.536999762E-1
1.969998438E0,4.348999858E-1,-1.208899975E0,2.131799936E0
1.979976563E0,2.727999985E-1,-1.142499924E0,3.099099874E0
1.989990625E0,1.600999981E-1,-1.169799924E0,3.121399879E0
2.000001563E0,1.459999941E-2,-1.137199998E0,2.004400015E0
2.009979688E0,5.829999968E-2,-1.057399988E0,4.974999726E-1
2.019990625E0,2.107999921E-1,-8.669999838E-1,-1.279299974E0
2.030001563E0,5.087000132E-1,-8.502999544E-1,-2.540599823E0
2.039981250E0,1.171700001E0,-6.985999942E-1,-2.931200027E0
2.049992188E0,1.808099985E0,-4.061999917E-1,-1.431699991E0
2.059971875E0,2.172899961E0,-5.336999893E-1,1.480899930E0
2.069982813E0,2.320299864E0,-5.746999979E-1,4.627699852E0
2.079995313E0,2.420899868E0,-8.004999757E-1,7.103799820E0
2.089975000E0,2.586799860E0,-1.240199924E0,8.478300095E0
2.099985938E0,2.459100008E0,-1.944599986E0,8.870699883E0
2.109996875E0,1.876500010E0,-2.084800005E0,8.242599487E0
2.119976563E0,1.289899945E0,-1.750599980E0,6.243399620E0
2.129987500E0,5.389999747E-1,-9.131999612E-1,3.931299925E0
2.139998438E0,-2.139999904E-2,2.211999893E-1,2.638900042E0
2.149978125E0,-3.053999841E-1,1.537499905E0,2.482300043E0
2.159989063E0,-9.933999777E-1,3.109999895E0,3.654099941E0
2.170000000E0,-1.296999931E0,3.492899895E0,6.508299828E0
2.179979688E0,-1.189299941E0,2.692999840E0,9.242899895E0
2.189992188E0,-1.371399999E0,1.467999935E0,1.118959999E1
2.200001563E0,-1.172799945E0,5.739999935E-2,1.082380009E1
2.209982813E0,-5.730999708E-1,-1.230499983E0,8.618800163E0
2.219993750E0,-3.527999818E-1,-1.375699997E0,5.162699699E0
2.229973438E0,-2.335999906E-1,-8.312000036E-1,2.063299894E0
2.239984375E0,2.239999920E-2,-2.671000063E-1,-5.228999853E-1
2.249995313E0,5.297999978E-1,3.163000047E-1,-2.674099922E0
2.259975000E0,5.643000007E-1,9.185999632E-1,-4.432399750E0
2.269985938E0,2.988999784E-1,1.541399956E0,-5.564799786E0
2.279998438E0,-3.285000026E-1,1.797499895E0,-6.230899811E0
2.289978125E0,-2.667999864E-1,1.739799976E0,-6.233299732E0
2.299989063E0,-9.154999852E-1,1.723199964E0,-6.593699932E0
2.310000000E0,-1.615099907E0,1.426899910E0,-6.565000057E0
2.319978125E0,-2.365799904E0,1.125800014E0,-6.381700039E0
2.329990625E0,-2.627499819E0,7.360999584E-1,-6.198199749E0
2.340001563E0,-2.896800041E0,4.783999920E-1,-5.896499634E0
2.349981250E0,-2.608000040E0,3.711999953E-1,-5.863100052E0
2.359992188E0,-2.136299849E0,1.612000018E-1,-5.978299618E0
2.369971875E0,-1.792400002E0,6.300000101E-2,-6.361299992E0
2.379982813E0,-1.545599937E0,9.849999845E-2,-6.975699902E0
2.389995313E0,-1.278299928E0,1.655000001E-1,-7.589599609E0
2.399975000E0,-1.096199989E0,2.349999994E-1,-8.206699371E0
2.409985938E0,-1.166599989E0,4.713999927E-1,-8.554900169E0
2.419996875E0,-1.309700012E0,6.541000009E-1,-8.507699966E0
2.429976563E0,-1.674399972E0,7.074999809E-1,-8.403999329E0
2.439987500E0,-2.129899979E0,7.242999673E-1,-7.949100018E0
2.449998438E0,-2.321899891E0,3.610000014E-1,-7.348199844E0
2.459978125E0,-1.999699950E0,-2.118999958E-1,-6.326099873E0
2.469989063E0,-1.579699993E0,-8.208999634E-1,-4.866399765E0
2.480000000E0,-1.267099977E0,-1.314000010E0,-3.157099962E0
2.489979688E0,-6.990000010E-1,-1.841799974E0,-1.094799995E0
2.499992188E0,4.549999908E-2,-2.082799911E0,1.262499928E0
2.510003125E0,7.236999869E-1,-2.062799931E0,3.244799852E0
2.519982813E0,1.462000012E0,-2.202399969E0,4.379600048E0
2.529993750E0,1.696499944E0,-2.182499886E0,3.889599800E0
2.539973438E0,1.561800003E0,-1.863899946E0,1.394699931E0
2.549984375E0,1.521999955E0,-1.524099946E0,-1.912699938E0
2.559995313E0,1.415399909E0,-6.947999597E-1,-4.726699829E0
2.569975000E0,1.832099915E0,-1.114999950E-1,-5.488999844E0
2.579985938E0,1.957199931E0,1.078599930E0,-4.933199883E0
2.589998438E0,1.976799965E0,1.953699946E0,-1.666700006E0
2.599978125E0,2.404199839E0,1.294199944E0,2.983399868E0
2.609989063E0,3.148200035E0,-1.683000028E-1,7.216599941E0
2.620000000E0,4.345299721E0,-2.003099918E0,9.309999466E0
2.629979688E0,5.105299950E0,-3.601099968E0,9.201899529E0
2.639990625E0,5.203899860E0,-4.112699986E0,6.745599747E0
2.650001563E0,4.771899700E0,-3.813599825E0,3.555299997E0
2.659981250E0,4.370299816E0,-3.355000019E0,1.337499976E0
2.669992188E0,3.722399950E0,-2.881999969E0,2.789999843E-1
2.679971875E0,2.970299959E0,-2.457299948E0,5.670999885E-1
2.689982813E0,1.810499907E0,-1.846699953E0,1.455699921E0
2.699995313E0,1.170199990E0,-1.556800008E0,2.392199993E0
2.709975000E0,6.683999896E-1,-1.394799948E0,2.827299833E0
2.719985938E0,1.490999907E-1,-1.134099960E0,2.878599882E0
2.729996875E0,-3.935999870E-1,-1.084299922E0,2.386899948E0
2.739976563E0,-6.101999879E-1,-1.058899999E0,1.666099906E0
2.749987500E0,-4.298999906E-1,-1.056100011E0,6.757000089E-1
2.760000000E0,5.689999834E-2,-9.196999669E-1,-7.020999789E-1
2.769978125E0,5.407999754E-1,-7.366999984E-1,-2.192199945E0
2.779989063E0,9.302999973E-1,-5.345999599E-1,-3.481699944E0
2.790001563E0,1.253899932E0,-3.651999831E-1,-4.297999859E0
2.799979688E0,1.371299982E0,-3.289999962E-1,-4.486399651E0
2.809992188E0,1.292400002E0,-1.332999915E-1,-4.245399952E0
2.819971875E0,9.325000048E-1,1.399999950E-2,-3.341099977E0
2.829982813E0,4.053999782E-1,6.049999967E-2,-1.854099989E0
2.839993750E0,-2.567999959E-1,1.039999947E-1,-3.292999864E-1
2.849973438E0,-8.869999647E-1,1.990000010E-1,1.353699923E0
2.859984375E0,-1.130900025E0,1.612999886E-1,2.958600044E0
2.869995313E0,-6.715999842E-1,-2.180000022E-2,4.130099773E0
2.879975000E0,3.455999792E-1,-7.198999524E-1,4.635099888E0
2.889985938E0,2.202999890E-1,-8.923999667E-1,4.273499966E0
2.899998438E0,-8.371999860E-1,-5.652999878E-1,3.161999941E0
2.909978125E0,-1.887899995E0,-2.412999868E-1,2.479300022E0
2.919989063E0,-2.264799833E0,7.240999937E-1,2.858999968E0
2.930000000E0,-2.038300037E0,1.398599982E0,4.224899769E0
2.939979688E0,-1.397899985E0,1.500499964E0,6.968400002E0
2.949990625E0,-7.555999756E-1,1.532899976E0,1.057709980E1
2.960001563E0,-4.099999964E-1,9.268999696E-1,1.379329967E1
2.969981250E0,1.388999969E-1,2.331999987E-1,1.481250000E1
2.979992188E0,8.836999536E-1,-5.191000104E-1,1.343949986E1
2.989973438E0,1.371799946E0,-6.093999743E-1,1.026379967E1
2.999982813E0,1.660300016E0,-2.849999964E-1,6.697199821E0
3.009995313E0,1.802199960E0,1.812999994E-1,3.405699968E0
3.019975000E0,1.764299989E0,5.227999687E-1,7.805999517E-1
3.029985938E0,1.625699997E0,9.345999956E-1,-1.452700019E0
3.039996875E0,1.273800015E0,1.337000012E0,-3.294799805E0
3.049976563E0,8.231999874E-1,1.762699962E0,-4.823499680E0
3.059987500E0,4.339999706E-2,1.947099924E0,-5.882299900E0
3.069998438E0,-7.971999645E-1,1.893700004E0,-6.431499958E0
3.079978125E0,-1.320599914E0,1.794299960E0,-6.508999825E0
3.089990625E0,-1.540300012E0,1.723199964E0,-6.741299629E0
3.100001563E0,-1.579699993E0,1.527799964E0,-6.853699684E0
3.109981250E0,-1.472499967E0,1.435099959E0,-7.120399952E0
3.119992188E0,-1.315099955E0,1.057699919E0,-7.306999683E0
3.129971875E0,-1.011600018E0,7.676999569E-1,-7.567699909E0
3.139982813E0,-9.821999669E-1,3.531999886E-1,-7.825199604E0
3.149993750E0,-1.064999938E0,2.979999967E-2,-8.120800018E0
3.159973438E0,-1.225600004E0,-2.032999992E-1,-8.102099419E0
3.169984375E0,-1.553499937E0,-3.651999831E-1,-8.009099960E0
3.179996875E0,-2.016900063E0,-5.475999713E-1,-7.879999638E0
3.189975000E0,-2.620599985E0,-7.091999650E-1,-7.629899979E0
3.199985938E0,-2.927899837E0,-7.957999706E-1,-7.252599716E0
3.209998438E0,-3.127699852E0,-8.265999556E-1,-6.769399643E0
3.219976563E0,-2.956899881E0,-8.356999755E-1,-6.511199951E0
3.229989063E0,-2.606400013E0,-1.028299928E0,-6.247900009E0
3.240000000E0,-2.122999907E0,-1.312500000E0,-5.380499840E0
3.249979688E0,-1.556999922E0,-1.642300010E0,-3.936299801E0
3.259990625E0,-6.963999867E-1,-1.608999968E0,-2.553799868E0
3.270001563E0,-1.840000004E-1,-1.606599927E0,-9.052999616E-1
3.279981250E0,3.449999988E-1,-1.646099925E0,1.161199927E0
3.289992188E0,3.482999802E-1,-1.636500001E0,3.162299871E0
3.299973438E0,2.612999976E-1,-1.039899945E0,4.671899796E0
3.309984375E0,4.052999914E-1,1.661999971E-1,4.822299957E0
3.319995313E0,9.388999939E-1,1.363099933E0,3.311899900E0
3.329975000E0,2.091500044E0,2.410799980E0,2.206500053E0
3.339985938E0,3.756199837E0,2.835099936E0,2.244699955E0
3.349996875E0,4.349699974E0,3.212999821E0,2.941699982E0
3.359976563E0,4.861099720E0,2.352799892E0,4.920399666E0
3.369987500E0,5.085000038E0,1.115999937E0,6.943699837E0
3.379998438E0,4.602099895E0,-7.239999622E-2,8.800000191E0
3.389978125E0,3.887499809E0,-9.430999756E-1,1.007929993E1
3.399990625E0,3.816299915E0,-1.489699960E0,1.063039970E1
3.410001563E0,4.296199799E0,-2.009199858E0,1.002610016E1
3.419981250E0,4.660399914E0,-2.204599857E0,8.622900009E0
3.429992188E0,4.602900028E0,-2.049900055E0,6.658299923E0
3.439971875E0,5.220599651E0,-2.064699888E0,6.548699856E0
3.449982813E0,5.707399845E0,-2.063699961E0,4.691099644E0
3.459993750E0,5.798299789E0,-2.188499928E0,3.199699879E0
3.469973438E0,5.433899879E0,-2.272599936E0,1.875699997E0
3.479984375E0,4.740399837E0,-2.464400053E0,1.264299989E0
3.489995313E0,3.838999987E0,-2.726199865E0,8.147999644E-1
3.499976563E0,3.151199818E0,-2.945799828E0,6.060000062E-1
3.509985938E0,2.715299845E0,-3.040499926E0,3.222999871E-1
3.519998438E0,2.512799978E0,-3.362099886E0,4.360000044E-2
3.529978125E0,2.688699961E0,-3.606999874E0,-3.828999996E-1
3.539989063E0,2.948400021E0,-3.931699991E0,-1.149099946E0
3.550000000E0,3.207899809E0,-4.391699791E0,-2.214900017E0
3.559979688E0,3.364499807E0,-4.572999954E0,-3.228799820E0
3.569990625E0,3.024199963E0,-4.509699821E0,-4.352799892E0
3.580001563E0,3.137499809E0,-4.436500072E0,-5.234099865E0
3.589981250E0,2.981999874E0,-4.255899906E0,-5.562999725E0
3.599993750E0,1.998199940E0,-3.474599838E0,-5.846399784E0
3.609973438E0,9.557999969E-1,-2.641799927E0,-6.120699883E0
3.619984375E0,1.190999970E-1,-1.847999930E0,-5.602099895E0
3.629995313E0,1.085999981E-1,-1.701999903E0,-4.821499825E0
3.639975000E0,4.445999861E-1,-1.497499943E0,-3.380599976E0
3.649985938E0,6.552000046E-1,-1.196299911E0,-1.452000022E0
3.659996875E0,9.437999725E-1,-1.004400015E0,1.054399967E0
3.669976563E0,1.609099984E0,-1.302299976E0,4.396299839E0
3.679987500E0,1.574999928E0,-1.235899925E0,7.414799690E0
3.689998438E0,1.631999969E0,-1.145299911E0,9.029299736E0
3.699978125E0,1.118299961E0,1.817999929E-1,8.713600159E0
3.709990625E0,7.729999721E-2,2.146699905E0,6.523699760E0
3.720001563E0,-8.096999526E-1,4.763799667E0,4.154599667E0
3.729981250E0,-1.312199950E0,7.498099804E0,3.489300013E0
3.739992188E0,-1.352100015E0,9.533199310E0,3.911199808E0
3.749971875E0,-1.003000021E0,1.051439953E1,4.807799816E0
3.759982813E0,-7.558999658E-1,1.060229969E1,5.908099651E0
3.769993750E0,-7.549999952E-1,9.679100037E0,6.819299698E0
3.779973438E0,-9.559999704E-1,8.433699608E0,6.871599674E0
3.789984375E0,-1.399899960E0,7.178400040E0,5.866799831E0
3.799996875E0,-1.895199895E0,6.208600044E0,4.041800022E0
3.809976563E0,-2.107599974E0,5.707599640E0,1.524099946E0
3.819987500E0,-1.944399953E0,5.284399986E0,-1.165699959E0
3.829998438E0,-1.668699980E0,4.628099918E0,-3.523799896E0
3.839978125E0,-1.403299928E0,3.824100018E0,-5.001399994E0
3.849989063E0,-8.273999691E-1,2.825000048E0,-5.870699883E0
3.860000000E0,-7.547999620E-1,2.055500031E0,-6.805699825E0
3.869979688E0,-1.251399994E0,1.268999934E0,-7.888999939E0
3.879990625E0,-1.819999933E0,1.706999987E-1,-9.085999489E0
3.890001563E0,-2.562500000E0,-8.967999816E-1,-1.008430004E1
3.899981250E0,-3.091599941E0,-1.707999945E0,-1.052359962E1
3.909992188E0,-3.554199934E0,-2.314899921E0,-9.967499733E0
3.919973438E0,-3.405999899E0,-2.604099989E0,-9.132999420E0
3.929984375E0,-2.843099833E0,-2.888200045E0,-8.544899940E0
3.939995313E0,-2.397300005E0,-2.904199839E0,-8.498299599E0
3.949975000E0,-2.007499933E0,-2.828500032E0,-8.927299500E0
3.959985938E0,-1.877799988E0,-2.527099848E0,-9.548399925E0
3.969996875E0,-2.224099874E0,-1.973599911E0,-1.008059978E1
3.979976563E0,-2.981699944E0,-1.470799923E0,-1.019679928E1
3.989989063E0,-3.537199974E0,-9.320999980E-1,-9.472099304E0
3.999998438E0,-4.292999744E0,-4.807999730E-1,-7.467000008E0
4.009979688E0,-5.597499847E0,4.001999795E-1,-3.182899952E0
4.019990625E0,-6.491600037E0,1.436200023E0,1.355299950E0
4.030001563E0,-6.901499748E0,2.277299881E0,6.514400005E0
4.039981250E0,-7.348599911E0,3.792799950E0,1.090209961E1
4.049992188E0,-7.651099682E0,6.031799793E0,1.440170002E1
4.059971875E0,-8.396599770E0,7.849199772E0,1.763759995E1
4.069982813E0,-1.015509987E1,8.721300125E0,1.999510002E1
4.079993750E0,-1.247340012E1,8.825799942E0,2.017669868E1
4.089973438E0,-1.451519966E1,9.240499496E0,1.966650009E1
4.099984375E0,-1.422359943E1,8.651800156E0,1.994719887E1
4.109996875E0,-1.018459988E1,6.227900028E0,2.035269928E1
4.119976563E0,-3.474099874E0,2.847899914E0,1.891689873E1
4.129987500E0,3.966799974E0,-1.759999990E-2,1.551239967E1
4.139998438E0,9.873000145E0,-2.207099915E0,1.087449932E1
4.149978125E0,1.312949944E1,-4.000299931E0,6.972799778E0
4.159989063E0,1.413339996E1,-5.376599789E0,4.401000023E0
4.170000000E0,1.359469986E1,-6.431499958E0,2.802799940E0
4.179979688E0,1.224359989E1,-7.081500053E0,1.509299994E0
4.189992188E0,1.085960007E1,-7.705999851E0,3.461999893E-1
4.200001563E0,9.974699974E0,-8.181499481E0,-6.190999746E-1
4.209982813E0,9.148799896E0,-8.772500038E0,-1.434199929E0
4.219993750E0,8.482500076E0,-9.430199623E0,-1.790899992E0
4.229973438E0,8.189000130E0,-1.011339951E1,-1.491899967E0
4.239984375E0,8.263799667E0,-1.070739937E1,-7.243999839E-1
4.249995313E0,8.807199478E0,-1.118629932E1,1.704999954E-1
4.259975000E0,9.409399986E0,-1.152579975E1,3.027999997E-1
4.269985938E0,9.836899757E0,-1.137819958E1,-5.532999635E-1
4.279996875E0,1.016559982E1,-1.095020008E1,-2.505199909E0
4.289976563E0,1.025869942E1,-1.021519947E1,-5.037600040E0
4.299989063E0,9.798399925E0,-9.287699699E0,-7.000000000E0
4.309998438E0,8.505299568E0,-8.309800148E0,-7.695299625E0
4.319979688E0,6.871699810E0,-7.407899857E0,-7.233500004E0
4.329990625E0,5.699199677E0,-6.201600075E0,-5.765699863E0
4.340001563E0,5.248399734E0,-4.935100079E0,-3.747900009E0
4.349981250E0,5.731499672E0,-3.764899969E0,-1.738799930E0
4.359992188E0,5.713699818E0,-2.775199890E0,-6.796999574E-1
4.369973438E0,4.566199780E0,-2.327800035E0,-1.031499982E0
4.379982813E0,3.105899811E0,-1.753699899E0,-1.296000004E0
4.389993750E0,2.163699865E0,-1.233199954E0,-3.332999945E-1
4.399973438E0,8.332999945E-1,-5.320999622E-1,1.855499983E0
4.409984375E0,-2.430500031E0,-1.569999941E-2,4.230599880E0
4.419995313E0,-5.880499840E0,1.081599951E0,7.349299908E0
4.429976563E0,-8.415100098E0,2.449800014E0,1.213529968E1
4.439987500E0,-1.055060005E1,3.916799784E0,1.599379921E1
4.449998438E0,-1.213579941E1,5.661399841E0,1.557719994E1
4.459978125E0,-1.297079945E1,8.201999664E0,1.061759949E1
4.469989063E0,-1.248819923E1,1.121700001E1,3.772599936E0
4.480000000E0,-1.120099926E1,1.359630013E1,-1.721099973E0
4.489979688E0,-1.070529938E1,1.427399921E1,-2.985299826E0
4.499990625E0,-1.123049927E1,1.225109959E1,1.557899952E0
4.510001563E0,-1.250299931E1,8.250599861E0,8.656399727E0
4.519982813E0,-1.435859966E1,3.909399986E0,1.486079979E1
4.529993750E0,-1.646349907E1,1.231400013E0,1.731900024E1
4.539973438E0,-1.706459999E1,1.290999949E-1,1.585039997E1
4.549984375E0,-1.544529915E1,1.595000029E-1,1.150010014E1
4.559995313E0,-1.191149998E1,6.839999557E-1,5.980299950E0
4.569975000E0,-1.126189995E1,4.143999815E-1,6.043799877E0
4.579985938E0,-7.490099907E0,1.098600030E0,1.266499996E0
4.589996875E0,-4.105899811E0,1.708699942E0,-1.964499950E0
4.599976563E0,-2.099599838E0,2.087499857E0,-3.834699869E0
4.609989063E0,-1.120999932E0,2.010699987E0,-4.424200058E0
4.620000000E0,-6.980999708E-1,1.406000018E0,-4.416999817E0
4.629979688E0,-1.812999994E-1,7.906000018E-1,-3.946399927E0
4.639990625E0,6.794999838E-1,4.666999876E-1,-3.287299871E0
4.650001563E0,2.388799906E0,5.385000110E-1,-2.995800018E0
4.659981250E0,4.096899986E0,1.438599944E0,-3.436999798E0
4.669992188E0,5.751599789E0,2.799499989E0,-5.302000046E0
4.679971875E0,6.203599930E0,4.177000046E0,-7.212999821E0
4.689982813E0,5.432600021E0,5.412199974E0,-8.206899643E0
4.699993750E0,3.453299999E0,6.160899639E0,-7.754099846E0
4.709973438E0,7.013999820E-1,6.481099606E0,-6.148699760E0
4.719985938E0,-2.805999994E0,6.880399704E0,-4.014199734E0
4.729996875E0,-6.749699593E0,7.546599865E0,-2.111899853E0
4.739976563E0,-1.028329945E1,8.038800240E0,-8.172999620E-1
4.749987500E0,-1.242399979E1,8.038000107E0,6.394999623E-1
4.759998438E0,-1.285589981E1,7.437599659E0,2.625000000E0
4.769978125E0,-1.171119976E1,6.192499638E0,4.406899929E0
4.779989063E0,-9.816699982E0,4.592199802E0,4.988299847E0
4.790000000E0,-7.660499573E0,3.170699835E0,5.174699783E0
4.799982813E0,-5.826900005E0,1.930199981E0,6.383599758E0
4.809992188E0,-4.563199997E0,7.050999999E-1,8.914199829E0
4.820003125E0,-3.466300011E0,-6.287999749E-1,1.209410000E1
4.829982813E0,-3.021299839E0,-7.802999616E-1,1.427819920E1
4.839995313E0,-3.799700022E0,8.396999836E-1,1.348499966E1
4.849973438E0,-5.668900013E0,4.037199974E0,1.100719929E1
4.859984375E0,-7.400799751E0,6.157599926E0,1.084119987E1
4.869995313E0,-7.980999947E0,5.802399635E0,1.438829994E1
4.879975000E0,-8.032899857E0,3.440899849E0,1.919589996E1
4.889985938E0,-7.595399857E0,-2.236000001E-1,2.099749947E1
4.899996875E0,-6.334499836E0,-3.834299803E0,1.998519897E1
4.909976563E0,-3.833799839E0,-7.041199684E0,1.760339928E1
4.919989063E0,-2.439000010E-1,-9.375000000E0,1.496899986E1
4.930000000E0,3.974900007E0,-1.047119999E1,1.164859962E1
4.939979688E0,7.836899757E0,-1.016469955E1,7.460299969E0
4.949990625E0,1.103189945E1,-9.260499954E0,2.728299856E0
4.960001563E0,1.286149979E1,-8.308499336E0,-1.484499931E0
4.969981250E0,1.374689960E1,-7.913799763E0,-4.408400059E0
4.979992188E0,1.404850006E1,-7.967199802E0,-5.320199966E0
4.989971875E0,1.324349976E1,-8.519800186E0,-4.964600086E0
4.999982813E0,1.196869946E1,-9.133999825E0,-3.985699892E0
5.009995313E0,1.087329960E1,-9.659699440E0,-2.826200008E0
5.019975000E0,1.018229961E1,-9.882199287E0,-2.325500011E0
5.029985938E0,1.033220005E1,-9.591499329E0,-2.987399817E0
5.039996875E0,1.074790001E1,-8.724999428E0,-4.651999950E0
5.049976563E0,1.104539967E1,-7.522699833E0,-6.810899734E0
5.059987500E0,1.121189976E1,-6.291599751E0,-8.839300156E0
5.069998438E0,1.088910007E1,-5.293600082E0,-1.006639957E1
5.079978125E0,1.001749992E1,-4.412600040E0,-1.071049976E1
5.089989063E0,8.309399605E0,-3.504199982E0,-1.074289989E1
5.100000000E0,6.243700027E0,-2.790799856E0,-1.032259941E1
5.109979688E0,4.399699688E0,-2.089200020E0,-9.164599419E0
5.119992188E0,3.148399830E0,-1.381399989E0,-7.275799751E0
5.130003125E0,2.247699976E0,-8.684999943E-1,-5.363999844E0
5.139982813E0,1.378700018E0,-8.949999511E-2,-3.316499949E0
5.149993750E0,3.998000026E-1,6.563999653E-1,-8.926999569E-1
5.159973438E0,-4.716999829E-1,1.937199950E0,1.732599974E0
5.169984375E0,-1.208400011E0,3.881199837E0,3.829399824E0
5.179995313E0,-2.628399849E0,7.026299953E0,6.319799900E0
5.189975000E0,-4.880000114E0,1.106779957E1,9.180600166E0
5.199985938E0,-8.104499817E0,1.568179989E1,1.457689953E1
5.209998438E0,-1.035379982E1,1.826079941E1,2.497169876E1
5.219978125E0,-1.131999969E1,1.598880005E1,3.603490067E1
5.229989063E0,-1.104909992E1,1.147679996E1,4.258359909E1
5.240000000E0,-9.517600060E0,8.366000175E0,4.185849762E1
5.249979688E0,-6.480999947E0,7.287399769E0,3.589339828E1
5.259990625E0,-2.653499842E0,7.381099701E0,2.655989838E1
5.270003125E0,8.217999935E-1,7.825299740E0,1.659370041E1
5.279981250E0,2.834899902E0,8.016300201E0,8.254499435E0
5.289992188E0,2.997999907E0,7.800199986E0,2.139299870E0
5.299973438E0,1.600799918E0,6.804199696E0,-1.849399924E0
5.309982813E0,-5.444999933E-1,5.277100086E0,-3.683099985E0
5.319995313E0,-2.548399925E0,3.687799931E0,-4.104899883E0
5.329975000E0,-4.007800102E0,2.112599850E0,-4.050499916E0
5.339985938E0,-4.728300095E0,9.716999531E-1,-3.827499866E0
5.349996875E0,-5.005899906E0,2.084999979E-1,-3.865399837E0
5.359976563E0,-4.617300034E0,-1.924999952E-1,-4.478300095E0
5.369987500E0,-3.677799940E0,-3.227999806E-1,-5.706299782E0
5.379998438E0,-2.495100021E0,-1.194999963E-1,-7.587100029E0
5.389978125E0,-1.608299971E0,1.846999973E-1,-9.533699989E0
5.399989063E0,-1.241999984E0,6.622999907E-1,-1.126929951E1
5.410000000E0,-1.572799921E0,1.282999992E0,-1.236310005E1
5.419979688E0,-2.236299992E0,2.026499987E0,-1.250539970E1
5.429992188E0,-2.970599890E0,2.877199888E0,-1.194059944E1
5.440003125E0,-3.447099924E0,3.772599936E0,-1.095389938E1
5.449982813E0,-3.613399982E0,4.737299919E0,-9.860400200E0
5.459993750E0,-3.250699997E0,5.621999741E0,-9.356299400E0
5.469973438E0,-2.612099886E0,5.750099659E0,-9.189999580E0
5.479984375E0,-1.999399900E0,5.328399658E0,-8.804999352E0
5.489996875E0,-1.330799937E0,4.509299755E0,-7.779399872E0
5.499975000E0,-7.626999617E-1,3.496199846E0,-6.213999748E0
5.509985938E0,-5.931999683E-1,2.524799824E0,-4.402499676E0
5.519998438E0,-6.175000072E-1,1.849399924E0,-2.492100000E0
5.529978125E0,-7.026999593E-1,1.464800000E0,-2.243999988E-1
5.539989063E0,-1.761299968E0,1.437999964E0,2.598500013E0
5.550000000E0,-3.734599829E0,1.793399930E0,6.444399834E0
5.559979688E0,-5.184299946E0,2.733899832E0,1.187809944E1
5.569990625E0,-3.604499817E0,4.259699821E0,1.769569969E1
5.580001563E0,-9.344999790E-1,8.121199608E0,2.119199944E1
5.589981250E0,1.647399902E0,1.406479931E1,2.179759979E1
5.599992188E0,6.444200039E0,1.829369926E1,2.264259911E1
5.609971875E0,1.070279980E1,1.881060028E1,2.542770004E1
5.619982813E0,1.204769993E1,1.475769997E1,3.180279922E1
5.629995313E0,9.098799706E0,8.509699821E0,4.088089752E1
5.639975000E0,5.411999702E0,2.446099997E0,4.493029785E1
5.649985938E0,3.041299820E0,-1.494099975E0,4.094709778E1
5.659996875E0,2.085099936E0,-3.470099926E0,3.217169952E1
5.669976563E0,2.808099985E0,-4.658999920E0,2.377689934E1
5.679987500E0,4.401899815E0,-6.037899971E0,1.876840019E1
5.689998438E0,6.005699635E0,-7.541800022E0,1.575039959E1
5.699978125E0,7.045699596E0,-9.199099541E0,1.287209988E1
5.709990625E0,6.997900009E0,-8.849200249E0,1.268179989E1
5.720000000E0,8.429499626E0,-1.025769997E1,9.490599632E0
5.729979688E0,1.019429970E1,-1.161769962E1,6.358200073E0
5.739992188E0,1.124450016E1,-1.273159981E1,3.990899801E0
5.749971875E0,1.120209980E1,-1.367919922E1,1.918099999E0
5.759982813E0,1.073099995E1,-1.473469925E1,-1.736999899E-1
5.769993750E0,1.002439976E1,-1.550979996E1,-2.086600065E0
5.779973438E0,9.736000061E0,-1.604850006E1,-4.444900036E0
5.789984375E0,9.722700119E0,-1.588569927E1,-6.731799603E0
5.799995313E0,9.920100212E0,-1.537099934E1,-8.468199730E0
5.809975000E0,1.012879944E1,-1.457279968E1,-9.763899803E0
5.819985938E0,9.999799728E0,-1.359099960E1,-1.085799980E1
5.829998438E0,9.640199661E0,-1.213999939E1,-1.163299942E1
5.839978125E0,8.879899979E0,-1.052129936E1,-1.266829967E1
5.849989063E0,7.768699646E0,-8.710899353E0,-1.400309944E1
5.860000000E0,6.683699608E0,-6.605999947E0,-1.507019997E1
5.869979688E0,5.697000027E0,-4.542200089E0,-1.558769989E1
5.879990625E0,4.615699768E0,-2.817099810E0,-1.534359932E1
5.890001563E0,2.955199957E0,-1.279299974E0,-1.434980011E1
5.899981250E0,1.384899974E0,-2.195999920E-1,-1.303590012E1
5.909992188E0,-1.030000001E-1,4.862999916E-1,-1.132699966E1
5.919971875E0,-1.436100006E0,7.526999712E-1,-9.072099686E0
5.929984375E0,-2.456599951E0,1.014099956E0,-6.283799648E0
5.939995313E0,-2.361399889E0,1.825699925E0,-3.567199945E0
5.949975000E0,-7.832999825E-1,3.283099890E0,-2.186199903E0
5.959985938E0,4.244000018E-1,5.483999729E0,-1.611099958E0
5.969996875E0,3.527999818E-1,8.694000244E0,-1.176999956E-1
5.979976563E0,-3.595099926E0,1.465459919E1,3.464999914E0
5.989987500E0,-6.126399994E0,1.904089928E1,1.262169933E1
5.999998438E0,-5.074299812E0,1.959149933E1,2.808939934E1
6.009978125E0,-2.335199833E0,1.708869934E1,4.737749863E1
6.019990625E0,2.578799963E0,1.321089935E1,5.905529785E1
6.030001563E0,4.806900024E0,1.257469940E1,5.584489822E1
6.039981250E0,4.910500050E0,1.292509937E1,4.228960037E1
6.049992188E0,3.647799969E0,1.312039948E1,2.747189903E1
6.059971875E0,1.523999929E0,1.214019966E1,1.674059868E1
6.069982813E0,-1.863899946E0,1.093489933E1,1.015559959E1
6.079993750E0,-5.510799885E0,9.536799431E0,5.550399780E0
6.089973438E0,-8.240699768E0,7.793399811E0,2.595599890E0
6.099984375E0,-9.767899513E0,5.949299812E0,4.293999970E-1
6.109995313E0,-9.550399780E0,4.324899673E0,-9.827999473E-1
6.119975000E0,-8.144000053E0,2.980799913E0,-3.129199982E0
6.129985938E0,-6.731599808E0,2.042399883E0,-5.547299862E0
6.139998438E0,-5.820799828E0,1.564299941E0,-7.852099895E0
6.149978125E0,-5.121599674E0,1.106299996E0,-9.269899368E0
6.159989063E0,-4.698999882E0,9.375000000E-1,-9.219900131E0
6.170000000E0,-4.659699917E0,1.006600022E0,-8.330800056E0
6.179979688E0,-4.913799763E0,1.154999971E0,-6.841399670E0
6.189990625E0,-4.971899986E0,1.350700021E0,-5.582499981E0
6.200001563E0,-5.265299797E0,1.837599993E0,-5.268899918E0
6.209981250E0,-5.297999859E0,2.276999950E0,-5.943500042E0
6.219993750E0,-5.294099808E0,2.486399889E0,-6.591499805E0
6.229971875E0,-5.333199978E0,2.538499832E0,-6.916699886E0
6.239984375E0,-5.031499863E0,2.286299944E0,-6.654299736E0
6.249995313E0,-4.419099808E0,1.798299909E0,-5.974699974E0
6.259975000E0,-4.040299892E0,1.012199998E0,-5.295700073E0
6.269985938E0,-3.533999920E0,5.499999970E-3,-4.396800041E0
6.279996875E0,-2.918499947E0,-4.614999890E-1,-2.733799934E0
6.289976563E0,-1.779699922E0,-4.326999784E-1,-6.191999912E-1
6.299987500E0,-5.643999577E-1,4.356999993E-1,1.496500015E0
6.309998438E0,-1.535999924E-1,2.206899881E0,3.576799870E0
6.319978125E0,-1.239899993E0,4.345099926E0,6.085399628E0
6.329989063E0,-3.234999895E0,7.666800022E0,8.472199440E0
6.340001563E0,-5.235300064E0,1.129809952E1,1.026249981E1
6.349981250E0,-4.308799744E0,1.183519936E1,1.403479958E1
6.359992188E0,-1.796999931E0,1.105690002E1,1.984449959E1
6.369971875E0,1.520799994E0,9.001099586E0,2.478819847E1
6.379982813E0,4.938399792E0,5.937599659E0,2.699179840E1
6.389993750E0,8.126699448E0,2.392799854E0,2.636899948E1
6.399973438E0,1.018029976E1,3.759999946E-2,2.334789848E1
6.409984375E0,1.128389931E1,-1.834299922E0,1.858230019E1
6.419996875E0,1.178819942E1,-3.541999817E0,1.370039940E1
6.429976563E0,1.199109936E1,-4.613100052E0,9.859499931E0
6.439987500E0,1.074259949E1,-5.351599693E0,6.459199905E0
6.449998438E0,8.214300156E0,-6.588199615E0,3.550299883E0
6.459978125E0,5.774499893E0,-7.978899956E0,2.169399977E0
6.469989063E0,4.185800076E0,-9.315899849E0,2.505399942E0
6.480000000E0,3.928299904E0,-1.060419941E1,3.270099878E0
6.489979688E0,4.751299858E0,-1.148059940E1,3.108500004E0
6.499990625E0,6.252299786E0,-1.212109947E1,1.717099905E0
6.510001563E0,7.369799614E0,-1.234229946E1,-7.023999691E-1
6.519981250E0,7.913599968E0,-1.207380009E1,-3.599099874E0
6.529993750E0,8.155300140E0,-1.173279953E1,-6.466300011E0
6.539973438E0,7.951499939E0,-1.134549999E1,-8.797399521E0
6.549984375E0,7.310499668E0,-1.081470013E1,-1.059480000E1
6.559995313E0,6.724499702E0,-9.961199760E0,-1.130359936E1
6.569975000E0,6.236899853E0,-8.966899872E0,-1.106079960E1
6.579985938E0,5.751999855E0,-7.911399841E0,-1.062489986E1
6.589996875E0,4.902100086E0,-6.515599728E0,-1.024419975E1
6.599976563E0,4.129399776E0,-4.978600025E0,-1.038469982E1
6.609987500E0,3.358799934E0,-3.547199965E0,-1.055980015E1
6.620000000E0,2.488800049E0,-2.121299982E0,-1.036919975E1
6.629978125E0,1.436599970E0,-9.616999626E-1,-9.671799660E0
6.639990625E0,5.150000006E-2,2.829000056E-1,-7.980799675E0
6.650001563E0,-9.886999726E-1,1.456200004E0,-6.512699604E0
6.659981250E0,-2.553699970E0,3.549399853E0,-5.803999901E0
6.669992188E0,-3.963099957E0,6.145199776E0,-4.277999878E0
6.679971875E0,-5.209199905E0,9.394000053E0,-1.442799926E0
6.689982813E0,-7.269199848E0,1.322830009E1,2.354699850E0
6.699993750E0,-1.011749935E1,1.773589897E1,9.465199471E0
6.709973438E0,-1.156890011E1,1.966530037E1,2.017459869E1
6.719984375E0,-1.147599983E1,1.769489861E1,3.050729942E1
6.729996875E0,-8.736199379E0,1.480849934E1,3.609949875E1
6.739976563E0,-3.345899820E0,1.176679993E1,3.598329926E1
6.749985938E0,9.618999958E-1,1.059029961E1,3.160939980E1
6.759998438E0,3.246599913E0,1.003179932E1,2.502159882E1
6.769978125E0,3.778599977E0,9.532999992E0,1.774169922E1
6.779989063E0,3.034099817E0,8.836599350E0,1.112230015E1
6.790000000E0,1.434399962E0,7.738599777E0,5.993599892E0
6.799979688E0,-5.412999988E-1,6.506499767E0,2.026999950E0
6.809990625E0,-2.156399965E0,4.985300064E0,-1.097399950E0
6.820001563E0,-3.220000029E0,3.403299809E0,-3.187999964E0
6.829981250E0,-2.882599831E0,3.071199894E0,-3.179800034E0
6.839993750E0,-3.567699909E0,1.617799997E0,-4.266299725E0
6.849973438E0,-3.748499870E0,4.561999738E-1,-4.922699928E0
6.859984375E0,-3.627099991E0,-3.078999817E-1,-5.461299896E0
6.869995313E0,-3.443899870E0,-8.786000013E-1,-5.881599903E0
6.879975000E0,-3.168799877E0,-1.193799973E0,-6.335000038E0
6.889985938E0,-2.547699928E0,-1.303099990E0,-6.660799980E0
6.899996875E0,-2.001600027E0,-1.326699972E0,-7.019499779E0
6.909976563E0,-1.733699918E0,-8.999999762E-1,-7.928899765E0
6.919987500E0,-1.544299960E0,-6.876999736E-1,-9.118599892E0
6.929998438E0,-1.581299901E0,-3.788000047E-1,-1.019719982E1
6.939979688E0,-1.668299913E0,-1.040000003E-2,-1.108780003E1
6.949990625E0,-1.869099975E0,4.393999875E-1,-1.142819977E1
6.960001563E0,-2.315399885E0,6.437999606E-1,-1.120769978E1
6.969981250E0,-2.524699926E0,6.042000055E-1,-1.058749962E1
6.979992188E0,-2.508399963E0,-1.609999873E-2,-9.601499557E0
6.989971875E0,-2.430299997E0,-8.919000030E-1,-8.553099632E0
6.999982813E0,-1.852199912E0,-1.868199944E0,-7.590099812E0
7.009993750E0,-8.775999546E-1,-2.891099930E0,-6.958899975E0
7.019973438E0,6.195999980E-1,-3.522300005E0,-6.451299667E0
7.029984375E0,2.439499855E0,-3.939999819E0,-5.871200085E0
7.039996875E0,4.304599762E0,-3.831099987E0,-5.070399761E0
7.049976563E0,4.865299702E0,-2.819299936E0,-4.517499924E0
7.059987500E0,4.932799816E0,-1.801999927E0,-3.269799948E0
7.069998438E0,3.889199972E0,1.990999877E-1,3.095999956E0
7.079978125E0,3.012699842E0,1.629799962E0,9.752799988E0
7.089989063E0,3.129499912E0,2.458699942E0,1.693400002E1
7.100000000E0,3.386600018E0,4.492799759E0,2.078229904E1
7.109979688E0,2.802099943E0,7.803999901E0,1.967899895E1
7.119990625E0,2.475800037E0,1.098759937E1,1.679940033E1
7.130001563E0,1.945699930E0,1.254039955E1,1.636479950E1
7.139981250E0,1.484699965E0,1.210279942E1,1.960330009E1
7.149993750E0,1.658999920E-1,1.037139988E1,2.420619965E1
7.159973438E0,-1.290599942E0,7.353099823E0,2.773089981E1
7.169984375E0,-2.440000057E0,4.180099964E0,2.814649963E1
7.179995313E0,-2.426800013E0,1.434999943E0,2.569999886E1
7.189975000E0,-1.355599999E0,-7.545999885E-1,2.134389877E1
7.199985938E0,4.459999800E-1,-2.472499847E0,1.678949928E1
7.209996875E0,2.578799963E0,-3.679099798E0,1.272919941E1
7.219978125E0,4.316699982E0,-4.834899902E0,9.224299431E0
7.229989063E0,5.212699890E0,-5.862599850E0,5.915899754E0
7.240000000E0,5.127399921E0,-7.025300026E0,2.947599888E0
7.249979688E0,4.432499886E0,-8.420800209E0,9.689999819E-1
7.259990625E0,3.109499931E0,-9.756899834E0,3.588999808E-1
7.270001563E0,1.835599899E0,-1.086609936E1,6.010999680E-1
7.279981250E0,1.156599998E0,-1.155879974E1,1.034899950E0
7.289992188E0,1.370899916E0,-1.211159992E1,1.038499951E0
7.299971875E0,2.321699858E0,-1.262889957E1,6.147999763E-1
7.309982813E0,3.333099842E0,-1.265859985E1,-2.639999986E-1
7.319993750E0,4.213299751E0,-1.272079945E1,-1.667499900E0
7.329975000E0,5.154099941E0,-1.281169987E1,-2.927999973E0
7.339984375E0,5.934599876E0,-1.269759941E1,-4.123199940E0
7.349996875E0,6.830199718E0,-1.224829960E1,-5.021299839E0
7.359976563E0,7.334499836E0,-1.133029938E1,-5.457799911E0
7.369985938E0,7.624899864E0,-9.752799988E0,-6.197399616E0
7.379998438E0,7.614500046E0,-7.725399971E0,-7.294499874E0
7.389978125E0,7.396999836E0,-5.565799713E0,-8.494599342E0
7.399989063E0,6.697700024E0,-3.368099928E0,-9.535699844E0
7.410000000E0,5.703000069E0,-1.661799908E0,-9.883699417E0
7.419979688E0,4.337800026E0,-1.736999899E-1,-9.033599854E0
7.429992188E0,2.695400000E0,8.229999542E-1,-7.044699669E0
7.440003125E0,1.053300023E0,1.500299931E0,-4.449500084E0
7.449982813E0,-4.785999954E-1,2.480900049E0,-1.425699949E0
7.459993750E0,-1.105199933E0,3.780900002E0,1.204999924E0
7.469973438E0,-2.029700041E0,5.451799870E0,3.345799923E0
7.479984375E0,-3.587199926E0,7.611399651E0,4.947899818E0
7.489995313E0,-5.726500034E0,1.058519936E1,6.045300007E0
7.499975000E0,-7.785299778E0,1.331769943E1,8.003799438E0
7.509985938E0,-9.533800125E0,1.475609970E1,1.231269932E1
7.519996875E0,-1.046669960E1,1.448149967E1,1.743549919E1
7.529976563E0,-1.047879982E1,1.311969948E1,2.068319893E1
7.539989063E0,-9.922499657E0,1.183369923E1,2.123670006E1
7.550000000E0,-8.074099541E0,1.085139942E1,1.991829872E1
7.559979688E0,-5.000299931E0,9.788399696E0,1.709770012E1
7.569990625E0,-1.819999933E0,8.317799568E0,1.326239967E1
7.580001563E0,7.380999923E-1,6.640999794E0,9.083299637E0
7.589981250E0,2.007099867E0,4.950699806E0,5.036299706E0
7.599992188E0,1.923199892E0,3.206199884E0,1.914899945E0
7.609971875E0,1.088500023E0,2.055199862E0,-7.224000096E-1
7.619982813E0,4.032999873E-1,1.567499995E0,-2.995199919E0
7.629993750E0,1.150000002E-2,1.162500024E0,-5.335899830E0
7.639975000E0,-7.780999541E-1,1.072899938E0,-6.965299606E0
7.649984375E0,-2.112099886E0,1.376199961E0,-7.415199757E0
7.659996875E0,-3.829299927E0,1.902300000E0,-6.915499687E0
7.669976563E0,-5.516200066E0,2.450899839E0,-5.812599659E0
7.679987500E0,-6.694599628E0,2.927299976E0,-4.763999939E0
7.690000000E0,-7.231799603E0,3.472100019E0,-4.116799831E0
7.699978125E0,-6.951999664E0,3.926199913E0,-4.187099934E0
7.709989063E0,-6.230700016E0,4.411600113E0,-4.585999966E0
7.720000000E0,-5.581399918E0,4.974400043E0,-5.005499840E0
7.729979688E0,-4.904399872E0,5.590600014E0,-4.910199642E0
7.739992188E0,-4.673500061E0,5.938899994E0,-4.168600082E0
7.750003125E0,-4.793600082E0,5.743199825E0,-2.980499983E0
7.759982813E0,-5.240200043E0,5.312500000E0,-1.042400002E0
7.769993750E0,-6.019199848E0,4.913700104E0,1.019999981E0
7.779973438E0,-6.688099861E0,4.702699661E0,3.297600031E0
7.789984375E0,-7.022099972E0,4.454499722E0,5.955100060E0
7.799995313E0,-7.046899796E0,4.341499805E0,9.072400093E0
7.809975000E0,-7.366399765E0,5.136499882E0,1.224049950E1
7.819985938E0,-7.957099915E0,6.449800014E0,1.490079975E1
7.829996875E0,-7.703999996E0,7.402999878E0,1.679940033E1
7.839976563E0,-6.140199661E0,7.555899620E0,1.953590012E1
7.849989063E0,-2.692899942E0,5.873399734E0,2.272789955E1
7.860000000E0,1.471099973E0,2.750000000E0,2.508930016E1
7.869979688E0,5.766499996E0,-1.035300016E0,2.502009964E1
7.879990625E0,9.019899368E0,-4.051899910E0,2.265460014E1
7.890001563E0,1.040839958E1,-6.161900043E0,1.869960022E1
7.899981250E0,1.057229996E1,-7.106199741E0,1.477779961E1
7.909992188E0,9.793799400E0,-7.170699596E0,1.105089951E1
7.919971875E0,8.895899773E0,-6.794999599E0,7.243299961E0
7.929982813E0,8.307099342E0,-6.367399693E0,3.543599844E0
7.939995313E0,8.025799751E0,-5.571700096E0,-9.169999510E-2
7.949975000E0,7.545399666E0,-5.727499962E0,-2.339999974E-1
7.959985938E0,7.196300030E0,-5.527299881E0,-3.615799904E0
7.969996875E0,6.548099995E0,-5.813299656E0,-6.166199684E0
7.979976563E0,5.798999786E0,-6.414299965E0,-7.771800041E0
7.989987500E0,5.131999969E0,-7.053599834E0,-8.275400162E0
7.999998438E0,4.612299919E0,-7.849699974E0,-7.595599651E0
8.009978125E0,4.151799679E0,-8.573299408E0,-6.668099880E0
8.019989063E0,3.814899921E0,-9.144499779E0,-5.723299980E0
8.030000000E0,3.634699821E0,-9.483399391E0,-5.577799797E0
8.039979688E0,3.531199932E0,-9.401599884E0,-6.222300053E0
8.049992188E0,3.496699810E0,-8.860599518E0,-7.490099907E0
8.060003125E0,3.619099855E0,-8.178599358E0,-8.735499382E0
8.069982813E0,3.184599876E0,-7.290899754E0,-9.849899292E0
8.079993750E0,2.652499914E0,-6.320299625E0,-1.021399975E1
8.089973438E0,1.945999980E0,-5.018099785E0,-1.023769951E1
8.099984375E0,1.085500002E0,-3.590499878E0,-9.614999771E0
8.109995313E0,1.065999940E-1,-2.309999943E0,-8.444899559E0
8.119975000E0,-7.250999808E-1,-1.246299982E0,-7.276700020E0
8.129985938E0,-1.551699996E0,-1.370999962E-1,-6.113199711E0
8.139998438E0,-1.926799893E0,8.339999914E-1,-4.913899899E0
8.149976563E0,-2.065000057E0,1.627699971E0,-3.434399843E0
8.159989063E0,-2.210799932E0,2.053299904E0,-1.715699911E0
8.170000000E0,-1.677799940E0,2.298099995E0,3.260999918E-1
8.179979688E0,-5.281000137E-1,2.589200020E0,3.110299826E0
8.189990625E0,1.484999955E-1,3.118999958E0,5.514899731E0
8.200001563E0,1.623999923E-1,4.979799747E0,8.052399635E0
8.209981250E0,-1.011899948E0,8.087499619E0,1.125539970E1
8.219992188E0,-2.250000000E0,1.137300014E1,1.636219978E1
8.229971875E0,-3.048499823E0,1.447609997E1,2.339789963E1
8.239982813E0,-1.920300007E0,1.465689945E1,3.197229958E1
8.249995313E0,-3.849999979E-2,1.270389938E1,3.893280029E1
8.259975000E0,1.598799944E0,1.065959930E1,4.043880081E1
8.269984375E0,3.622799873E0,9.059100151E0,3.616989899E1
8.279996875E0,5.407499790E0,8.701199532E0,2.780639839E1
8.289976563E0,6.030699730E0,8.862500191E0,1.801280022E1
8.299987500E0,4.934499741E0,8.962399483E0,8.739199638E0
8.309998438E0,2.448499918E0,8.896299362E0,1.013700008E0
8.319978125E0,-1.086499929E0,8.955200195E0,-5.255199909E0
8.329990625E0,-3.981699944E0,8.472299576E0,-9.204699516E0
8.340001563E0,-5.311699867E0,7.772899628E0,-1.039820004E1
8.349981250E0,-5.802999973E0,6.868099689E0,-1.055779934E1
8.359992188E0,-5.830299854E0,5.452799797E0,-1.089859962E1
8.370001563E0,-5.327699661E0,3.995099783E0,-1.126449966E1
8.379982813E0,-4.883299828E0,2.693099976E0,-1.111189938E1
8.389993750E0,-4.333499908E0,1.735599995E0,-1.060139942E1
8.399973438E0,-3.793599844E0,1.034299970E0,-1.004689980E1
8.409984375E0,-3.229300022E0,5.728999972E-1,-9.718099594E0
8.419995313E0,-2.781599998E0,5.640999675E-1,-9.884299278E0
8.429976563E0,-2.550799847E0,7.921999693E-1,-1.053789997E1
8.439985938E0,-2.540499926E0,1.097499967E0,-1.151480007E1
8.449998438E0,-2.376299858E0,1.386699915E0,-1.219129944E1
8.459976563E0,-2.553200006E0,1.634899974E0,-1.245209980E1
8.469989063E0,-2.878299952E0,1.736499906E0,-1.220090008E1
8.480000000E0,-3.378799915E0,1.724799991E0,-1.108679962E1
8.489979688E0,-4.055399895E0,1.485899925E0,-8.569099426E0
8.499990625E0,-4.600999832E0,1.020799994E0,-4.200999737E0
8.510001563E0,-4.627899647E0,9.059999883E-2,7.206999660E-1
8.519981250E0,-4.861999989E0,-5.659999847E-1,5.437200069E0
8.529992188E0,-4.216399670E0,-9.995999932E-1,9.250399590E0
8.539971875E0,-3.812099934E0,-1.304700017E0,1.091429996E1
8.549982813E0,-3.711699963E0,2.300000004E-2,1.448379993E1
8.559995313E0,-2.759699821E0,1.527300000E0,1.742020035E1
8.569975000E0,-1.366899967E0,3.095599890E0,1.805859947E1
8.579985938E0,-1.946999878E-1,5.361799717E0,1.771689987E1
8.589996875E0,1.372599959E0,5.937699795E0,1.768779945E1
8.599976563E0,3.657999992E0,4.531799793E0,1.812849998E1
8.609987500E0,5.446899891E0,2.884299994E0,1.869509888E1
8.619998438E0,7.135900021E0,9.377999902E-1,1.781529999E1
8.629978125E0,8.246899605E0,-1.021799922E0,1.570489979E1
8.639990625E0,8.686699867E0,-2.348299980E0,1.295090008E1
8.650000000E0,8.315199852E0,-3.084800005E0,1.028079987E1
8.659979688E0,7.528899670E0,-3.765999794E0,8.057899475E0
8.669992188E0,6.175600052E0,-4.177400112E0,6.336799622E0
8.679971875E0,4.754600048E0,-4.654699802E0,4.942499638E0
8.689982813E0,3.639699936E0,-5.038399696E0,3.438400030E0
8.699993750E0,3.016000032E0,-5.409399986E0,1.982199907E0
8.709973438E0,2.708899975E0,-5.773399830E0,3.800999820E-1
8.719984375E0,2.591799974E0,-6.284499645E0,-7.805999517E-1
8.729995313E0,2.540599823E0,-7.018699646E0,-1.656999946E0
8.739975000E0,2.469699860E0,-7.859099865E0,-2.129499912E0
8.749985938E0,2.681900024E0,-8.653699875E0,-2.547299862E0
8.759998438E0,3.173199892E0,-9.290299416E0,-3.142199993E0
8.769978125E0,3.727299929E0,-9.491999626E0,-4.067699909E0
8.779989063E0,4.199100018E0,-9.453399658E0,-5.320899963E0
8.790000000E0,4.579299927E0,-9.170399666E0,-6.700399876E0
8.799979688E0,4.574100018E0,-8.613900185E0,-8.158999443E0
8.809990625E0,4.470799923E0,-7.846199989E0,-9.450699806E0
8.820001563E0,4.025599957E0,-6.999599934E0,-1.037119961E1
8.829981250E0,3.371099949E0,-5.807099819E0,-1.098149967E1
8.839992188E0,2.568199873E0,-4.392399788E0,-1.150189972E1
8.849973438E0,1.870199919E0,-2.970000029E0,-1.169629955E1
8.859984375E0,1.381399989E0,-1.851199985E0,-1.134829998E1
8.869995313E0,9.481999874E-1,-1.134999990E0,-1.004549980E1
8.879975000E0,8.765999675E-1,-5.941999555E-1,-7.677999973E0
8.889985938E0,6.988999844E-1,-4.463000000E-1,-4.246900082E0
8.899996875E0,1.007200003E0,-3.465999961E-1,8.144999743E-1
8.909976563E0,3.093000054E-1,7.871999741E-1,7.023900032E0
8.919987500E0,-1.143499970E0,2.477499962E0,1.344359970E1
8.929998438E0,-3.321799994E0,4.796700001E0,1.930780029E1
8.939978125E0,-5.596999645E0,7.848899841E0,2.408720016E1
8.949990625E0,-6.597499847E0,9.061299324E0,2.803339958E1
8.960000000E0,-4.634999752E0,7.206399918E0,3.135179901E1
8.969981250E0,-3.257599831E0,5.726899624E0,3.209479904E1
8.979993750E0,-2.442199945E0,5.432499886E0,2.830279922E1
8.989971875E0,-2.017400026E0,6.314300060E0,2.026309967E1
8.999981250E0,-2.297399998E0,8.019700050E0,1.122319984E1
9.009993750E0,-3.533799887E0,1.007559967E1,3.459899902E0
9.019973438E0,-4.752099991E0,1.217829990E1,-2.605900049E0
9.029984375E0,-5.428099632E0,1.342369938E1,-7.005799770E0
9.039995313E0,-5.064399719E0,1.272309971E1,-1.050539970E1
9.049976563E0,-4.218499660E0,1.086429977E1,-1.247229958E1
9.059985938E0,-4.226599693E0,1.018029976E1,-1.248439980E1
9.069998438E0,-3.784199953E0,7.915199757E0,-1.207369995E1
9.079978125E0,-3.485399961E0,5.778999805E0,-1.054780006E1
9.089989063E0,-2.768399954E0,3.522399902E0,-8.392000198E0
9.100000000E0,-2.261999846E0,1.760199904E0,-6.321899891E0
9.109979688E0,-2.152699947E0,7.260999680E-1,-5.001899719E0
9.119990625E0,-2.435099840E0,5.195999742E-1,-5.319799900E0
9.130001563E0,-2.555799961E0,1.172799945E0,-6.750000000E0
9.139981250E0,-2.672799826E0,1.606400013E0,-8.692399979E0
9.149993750E0,-2.689399958E0,1.918799996E0,-1.050339985E1
9.159973438E0,-2.663100004E0,1.924600005E0,-1.182149982E1
9.169984375E0,-2.719899893E0,1.897300005E0,-1.200409985E1
9.179995313E0,-2.985699892E0,1.688300014E0,-1.123289967E1
9.189975000E0,-3.305500031E0,1.588699937E0,-9.377399445E0
9.199985938E0,-3.307399988E0,1.834299922E0,-6.560499668E0
9.209996875E0,-2.652600050E0,1.783199906E0,-3.282500029E0
9.219976563E0,-1.989199996E0,1.665300012E0,6.085000038E-1
9.229987500E0,-1.576200008E0,1.824299932E0,4.832699776E0
9.240000000E0,-2.063600063E0,1.736599922E0,9.357399940E0
9.249978125E0,-2.631199837E0,2.104300022E0,1.462199974E1
9.259990625E0,-2.508299828E0,3.001399994E0,1.969939995E1
9.270001563E0,-1.987199903E0,4.334199905E0,2.338899994E1
9.279981250E0,-1.416199923E0,6.055199623E0,2.546629906E1
9.289992188E0,-6.961999536E-1,7.854699612E0,2.664799881E1
9.299971875E0,1.155699968E0,8.667300224E0,2.865749931E1
9.309982813E0,4.713699818E0,7.525399685E0,3.024839973E1
9.319993750E0,1.013519955E1,4.689599991E0,2.878809929E1
9.329973438E0,1.578999996E1,1.852499962E0,2.467869949E1
9.339984375E0,1.965419960E1,-3.683999777E-1,1.936809921E1
9.349996875E0,2.060089874E1,-1.533899903E0,1.409060001E1
9.359976563E0,1.863279915E1,-1.935799956E0,9.598499298E0
9.369987500E0,1.479099941E1,-2.281999826E0,5.850699902E0
9.379998438E0,1.053100014E1,-2.931399822E0,2.539399862E0
9.389976563E0,6.623399734E0,-3.801399946E0,-8.159999847E-1
9.399989063E0,3.210399866E0,-4.815700054E0,-4.570600033E0
9.410000000E0,4.716999829E-1,-6.011299610E0,-7.823400021E0
9.419979688E0,-1.533299923E0,-7.265299797E0,-1.006459999E1
9.429993750E0,-2.709199905E0,-8.494199753E0,-1.117439938E1
9.440001563E0,-2.923300028E0,-9.806799889E0,-1.158179951E1
9.449981250E0,-2.346999884E0,-1.118789959E1,-1.152169991E1
9.459993750E0,-1.831399918E0,-1.232339954E1,-1.130369949E1
9.469973438E0,-1.724399924E0,-1.340399933E1,-1.104159927E1
9.479984375E0,-1.835699916E0,-1.434309959E1,-1.108099937E1
9.489995313E0,-2.269099951E0,-1.502869987E1,-1.163899994E1
9.499975000E0,-3.037699938E0,-1.475409985E1,-1.214989948E1
9.509985938E0,-3.296599865E0,-1.380749989E1,-1.286649990E1
9.519996875E0,-2.836999893E0,-1.249339962E1,-1.370720005E1
9.529976563E0,-2.555199862E0,-1.061170006E1,-1.405839920E1
9.539987500E0,-2.337699890E0,-8.606100082E0,-1.358990002E1
9.549998438E0,-2.209899902E0,-6.185499668E0,-1.170839977E1
9.559978125E0,-2.216699839E0,-3.577499866E0,-8.439499855E0
9.569990625E0,-1.931299925E0,-1.248499990E0,-4.499099731E0
9.580001563E0,-1.491999984E0,4.122000039E-1,-2.901999950E-1
9.589981250E0,-9.426999688E-1,2.227799892E0,3.484299898E0
9.599992188E0,2.199999988E-2,4.393899918E0,6.585000038E0
9.609971875E0,1.097199917E0,7.182499886E0,1.029019928E1
9.619982813E0,2.322099924E0,1.048379993E1,1.571129990E1
9.629993750E0,2.252300024E0,1.391809940E1,2.139289856E1
9.639973438E0,2.246099949E0,1.643420029E1,2.528359985E1
9.649984375E0,3.181099892E0,1.789019966E1,2.823309898E1
9.659996875E0,4.707799911E0,1.726669884E1,3.105099869E1
9.669976563E0,5.723000050E0,1.494209957E1,3.346039963E1
9.679985938E0,5.256199837E0,1.255410004E1,3.365200043E1
9.689998438E0,3.228600025E0,1.058650017E1,3.073729897E1
9.699978125E0,5.185999870E-1,9.476900101E0,2.533219910E1
9.709989063E0,-1.933999896E0,9.003699303E0,1.815089989E1
9.720000000E0,-3.347299814E0,8.639800072E0,1.025889969E1
9.729979688E0,-3.928900003E0,8.225799561E0,2.969799995E0
9.739990625E0,-3.536099911E0,8.003999710E0,-3.173099995E0
9.750001563E0,-2.610199928E0,7.668900013E0,-8.169400215E0
9.759981250E0,-1.330699921E0,7.038199902E0,-1.175070000E1
9.769993750E0,-2.885999978E-1,5.933499813E0,-1.369559956E1
9.779973438E0,-4.829999804E-2,4.649099827E0,-1.397970009E1
9.789984375E0,-8.194999695E-1,3.457700014E0,-1.332259941E1
9.799995313E0,-2.125699997E0,2.705399990E0,-1.212259960E1
9.809975000E0,-3.469899893E0,1.957999945E0,-1.081120014E1
9.819985938E0,-4.510399818E0,1.509899974E0,-9.931799889E0
9.829996875E0,-4.303100109E0,1.296800017E0,-9.586999893E0
9.839976563E0,-3.075399876E0,1.195999980E0,-1.020109940E1
9.849989063E0,-1.381299973E0,1.286000013E0,-1.126399994E1
9.859998438E0,2.705000043E-1,1.682599902E0,-1.179419994E1
9.869979688E0,1.690899968E0,2.022699833E0,-1.147229958E1
9.879990625E0,3.040199995E0,2.414999962E0,-1.032259941E1
9.890001563E0,4.657499790E0,2.419100046E0,-9.230500221E0
9.899981250E0,5.714099884E0,2.135200024E0,-7.664499760E0
9.909993750E0,6.025599957E0,1.804699898E0,-4.251100063E0
9.919971875E0,5.284999847E0,1.407699943E0,1.592999995E-1
9.929982813E0,4.189899921E0,8.514999747E-1,4.162799835E0
9.939993750E0,3.166999817E0,4.477999806E-1,7.102299690E0
9.949973438E0,2.485499859E0,3.089999855E-1,9.393699646E0
9.959984375E0,1.763799906E0,4.012999833E-1,1.197439957E1
9.969996875E0,1.096599936E0,1.047999978E0,1.519069958E1
9.979975000E0,6.022999883E-1,1.740799904E0,1.838519859E1
9.989987500E0,5.414000154E-1,2.633899927E0,1.966230011E1
9.999998438E0,1.366899967E0,3.989399910E0,1.872220039E1
1.000997812E1,3.228399992E0,5.235099792E0,1.614169884E1
1.001998906E1,5.808599949E0,6.485899925E0,1.381429958E1
1.003000000E1,8.744500160E0,6.792199612E0,1.201429939E1
1.003997969E1,1.001550007E1,6.233699799E0,1.062889957E1
1.004999063E1,9.609999657E0,4.827899933E0,9.694099426E0
1.006000156E1,7.943399906E0,2.315099955E0,8.747599602E0
1.006998125E1,5.044699669E0,6.129999831E-2,7.031499863E0
1.007999375E1,1.346199989E0,-1.555499911E0,4.648799896E0
1.008997344E1,-1.692499995E0,-2.610800028E0,1.940599918E0
1.009998438E1,-3.304600000E0,-3.249199867E0,-6.628999710E-1
1.010999531E1,-3.712099791E0,-3.732100010E0,-2.725600004E0
1.011997500E1,-3.330299854E0,-4.290400028E0,-4.394599915E0
1.012998594E1,-2.714699984E0,-5.455299854E0,-5.168299675E0
1.013999688E1,-2.085299969E0,-7.018799782E0,-5.255599976E0
1.014997656E1,-1.986699939E0,-8.663199425E0,-4.891900063E0
1.015998906E1,-1.470600009E0,-8.283299446E0,-5.050999641E0
1.017000000E1,-1.231099963E0,-9.715299606E0,-4.296400070E0
1.017997812E1,-1.114799976E0,-1.068270016E1,-3.606299877E0
1.018999062E1,-4.650999904E-1,-1.133109951E1,-3.409899950E0
1.020000156E1,4.373999834E-1,-1.173569965E1,-4.092599869E0
1.020998125E1,1.145099998E0,-1.155799961E1,-5.477999687E0
1.021999219E1,1.557500005E0,-1.072239971E1,-7.035699844E0
1.022997188E1,1.652699947E0,-9.728300095E0,-8.545299530E0
1.023998281E1,1.140100002E0,-8.728400230E0,-9.605899811E0
1.024999375E1,1.659999937E-1,-7.550099850E0,-1.006750011E1
1.025997500E1,-6.297000051E-1,-6.205699921E0,-9.945499420E0
1.026998438E1,-1.465699911E0,-4.567500114E0,-8.831699371E0
1.027999688E1,-2.146199942E0,-3.058199883E0,-7.254499912E0
1.028997656E1,-2.060600042E0,-1.497999907E0,-5.334899902E0
1.029998750E1,-7.603999972E-1,-3.007999957E-1,-3.498199940E0
1.030999844E1,9.296000004E-1,7.498999834E-1,-1.195400000E0
1.031997812E1,1.677399993E0,1.469399929E0,2.555899858E0
1.032998906E1,2.980999947E-1,2.679299831E0,8.309700012E0
1.034000000E1,-1.550599933E0,4.241399765E0,1.576760006E1
1.034997969E1,-2.490999937E0,5.790599823E0,2.119789886E1
1.035999219E1,-1.863899946E0,8.227299690E0,2.205099869E1
1.037000312E1,-2.349999920E-2,1.082149982E1,2.063239861E1
1.037998125E1,1.026399970E0,1.245379925E1,2.138349915E1
1.038999375E1,1.044199944E0,1.269180012E1,2.465199852E1
1.039997344E1,7.292999625E-1,1.170790005E1,2.579789925E1
1.040998438E1,9.229999781E-1,1.089909935E1,2.163479996E1
1.041999531E1,1.484200001E0,1.065539932E1,1.440219975E1
1.042997656E1,1.309999943E0,1.089839935E1,7.473399639E0
1.043998750E1,3.422999978E-1,1.151139927E1,1.835199952E0
1.044999844E1,-3.716999888E-1,1.208119965E1,-2.520200014E0
1.045997656E1,-5.169000030E-1,1.222989941E1,-6.095900059E0
1.046998906E1,6.286000013E-1,1.175889969E1,-8.488900185E0
1.048000000E1,2.587499857E0,1.074359989E1,-8.645699501E0
1.048997969E1,3.421099901E0,9.063599586E0,-7.141199589E0
1.049999062E1,2.638499975E0,6.703000069E0,-5.454099655E0
1.051000156E1,4.134999812E-1,4.081799984E0,-4.973700047E0
1.051998125E1,-2.590699911E0,1.989199996E0,-5.576499939E0
1.052999219E1,-5.513700008E0,1.046700001E0,-6.344199657E0
1.053997188E1,-7.188799858E0,1.225399971E0,-6.906799793E0
1.054998281E1,-7.496500015E0,2.149499893E0,-7.485399723E0
1.055999375E1,-6.916599751E0,3.419399977E0,-7.948799610E0
1.056997500E1,-6.032299995E0,4.514299870E0,-8.353300095E0
1.057998438E1,-5.214999676E0,5.547100067E0,-8.282799721E0
1.058999688E1,-4.899899960E0,6.232299805E0,-7.402899742E0
1.059997656E1,-4.927599907E0,6.750999928E0,-5.559299946E0
1.060998750E1,-4.774300098E0,6.847599983E0,-2.591500044E0
1.061999844E1,-3.794899940E0,6.375699997E0,3.398999870E-1
1.062997813E1,-2.231299877E0,5.674799919E0,2.299999952E0
1.063998906E1,-9.356999993E-1,5.147500038E0,3.575999975E0
1.065000000E1,-6.119999662E-2,5.015999794E0,5.138700008E0
1.065997969E1,1.943999976E-1,5.464499950E0,8.102199554E0
1.066999219E1,5.009999871E-2,5.923199654E0,1.236139965E1
1.068000312E1,1.712999940E-1,5.563499928E0,1.704010010E1
1.068998281E1,5.964999795E-1,3.787400007E0,2.134720039E1
1.069999375E1,1.514699936E0,1.137099981E0,2.442569923E1
1.070997344E1,3.920300007E0,-1.940999985E0,2.474279976E1
1.071998438E1,6.784299850E0,-4.675899982E0,2.221609879E1
1.072999531E1,9.014299393E0,-6.433300018E0,1.818159866E1
1.073997500E1,9.718400002E0,-7.008100033E0,1.326449966E1
1.074998594E1,8.929499626E0,-6.679800034E0,7.778699875E0
1.075999844E1,6.722399712E0,-5.765599728E0,2.521999836E0
1.076997656E1,3.837499857E0,-4.823800087E0,-1.680099964E0
1.077998906E1,1.209599972E0,-4.160099983E0,-4.160799980E0
1.079000000E1,-1.402999997E0,-3.812899828E0,-5.304199696E0
1.079997969E1,-3.202199936E0,-4.105299950E0,-6.269799709E0
1.080999063E1,-4.109899998E0,-4.666299820E0,-6.990299702E0
1.082000156E1,-4.293900013E0,-5.410199642E0,-7.740900040E0
1.082998125E1,-4.077899933E0,-6.130399704E0,-7.894499779E0
1.083999219E1,-3.638199806E0,-7.284800053E0,-7.488199711E0
1.084997188E1,-2.801699877E0,-8.283399582E0,-6.706500053E0
1.085998281E1,-1.961699963E0,-8.989500046E0,-6.156300068E0
1.086999531E1,-1.365000010E0,-9.307000160E0,-6.176699638E0
1.087997500E1,-7.946999669E-1,-9.314599991E0,-6.568799973E0
1.088998438E1,-2.859999985E-2,-8.966799736E0,-7.602299690E0
1.089999688E1,9.485999942E-1,-8.328499794E0,-8.720299721E0
1.090997656E1,2.132499933E0,-7.455599785E0,-9.553999901E0
1.091998750E1,2.835199833E0,-6.181499958E0,-9.725899696E0
1.092999844E1,3.019199848E0,-4.668999672E0,-9.481200218E0
1.093997813E1,2.574300051E0,-3.060499907E0,-9.064000130E0
1.094999062E1,1.861199975E0,-1.257599950E0,-8.441399574E0
1.096000000E1,1.129599929E0,5.145999789E-1,-7.458499908E0
1.096997969E1,7.364000082E-1,2.289899826E0,-6.267999649E0
1.097999219E1,7.579999566E-1,3.847800016E0,-4.984999657E0
1.099000313E1,1.278699994E0,5.026700020E0,-3.798499823E0
1.099998281E1,2.336699963E0,5.685199738E0,-2.576999903E0
1.100999375E1,4.161900043E0,5.642899990E0,-1.393599987E0
1.101997344E1,5.785799980E0,5.185199738E0,4.770999849E-1
1.102998438E1,5.638099670E0,4.549599648E0,3.775699854E0
1.103999531E1,3.562099934E0,3.908199787E0,9.173399925E0
1.104997500E1,-2.919999957E-1,3.609999895E0,1.903019905E1
1.105998594E1,-2.409199953E0,4.326900005E0,3.134039879E1
1.106999844E1,-1.190599918E0,3.820499897E0,4.059469986E1
1.107997656E1,1.715799928E0,2.051499844E0,4.320809937E1
1.108998906E1,4.799999714E0,1.331699967E0,3.998360062E1
1.110000000E1,7.336400032E0,1.444700003E0,3.389229965E1
1.110997969E1,8.376299858E0,2.140799999E0,2.670259857E1
1.111999063E1,7.539199829E0,3.038599968E0,1.880679893E1
1.113000156E1,4.865499973E0,4.194099903E0,1.068859959E1
1.113998125E1,1.556999922E0,5.279500008E0,3.273900032E0
1.114999219E1,-1.857499957E0,6.398299694E0,-2.623899937E0
1.115997188E1,-4.736899853E0,7.116099834E0,-6.303299904E0
1.116998281E1,-6.896599770E0,7.133199692E0,-8.775499344E0
1.117999531E1,-8.121600151E0,6.502199650E0,-1.065819931E1
1.118997500E1,-8.160200119E0,5.773499966E0,-1.111969948E1
1.119998438E1,-7.685199738E0,4.764100075E0,-1.015969944E1
1.120999688E1,-6.937699795E0,3.982399940E0,-8.406599998E0
1.121997656E1,-6.193399906E0,3.617899895E0,-7.077600002E0
1.122998750E1,-5.187799931E0,3.388199806E0,-7.151799679E0
1.123999844E1,-4.385099888E0,3.662799835E0,-8.708399773E0
1.124997812E1,-3.836399794E0,3.504999876E0,-8.733599663E0
1.125998906E1,-2.758399963E0,4.015599728E0,-1.145699978E1
1.127000156E1,-1.659599900E0,4.515500069E0,-1.412729931E1
1.127997969E1,-9.229999781E-1,5.183799744E0,-1.559389973E1
1.128999063E1,-7.473999858E-1,5.648599625E0,-1.603680038E1
1.130000312E1,-1.307999969E0,5.751899719E0,-1.531029987E1
1.130998281E1,-2.264699936E0,5.630199909E0,-1.388159943E1
1.131999375E1,-3.226599932E0,4.968299866E0,-1.160839939E1
1.132997344E1,-3.401299953E0,3.778100014E0,-9.082300186E0
1.133998438E1,-2.758299828E0,2.480799913E0,-5.842000008E0
1.134999531E1,-1.095899940E0,1.553399920E0,-2.318500042E0
1.135997500E1,1.462499976E0,1.121599913E0,8.680999875E-1
1.136998594E1,4.333600044E0,1.217399955E0,3.620800018E0
1.137999844E1,5.768099785E0,1.730699897E0,5.955100060E0
1.138997812E1,5.276799679E0,2.708699942E0,8.989899635E0
1.139998906E1,3.295300007E0,4.050399780E0,1.385599995E1
1.141000000E1,1.631799936E0,5.379899979E0,2.025359917E1
1.141997969E1,1.386699915E0,6.651799679E0,2.575059891E1
1.142999062E1,2.186100006E0,7.721299648E0,2.872219849E1
1.144000156E1,3.394299984E0,8.826199532E0,2.956849861E1
1.144998125E1,6.025300026E0,8.241199493E0,2.930869865E1
1.145999219E1,9.523099899E0,6.328199863E0,2.817879868E1
1.146997188E1,1.222859955E1,4.815799713E0,2.686949921E1
1.147998281E1,1.382489967E1,3.055799961E0,2.516939926E1
1.148999375E1,1.309980011E1,6.766999960E-1,2.279500008E1
1.149997500E1,1.015289974E1,-1.890100002E0,1.917440033E1
1.150998438E1,5.643199921E0,-4.377200127E0,1.488329983E1
1.151999688E1,1.047600031E0,-6.320600033E0,1.004269981E1
1.152997656E1,-2.497099876E0,-7.915499687E0,5.405799866E0
1.153998750E1,-4.908699989E0,-9.237299919E0,1.331900001E0
1.154999844E1,-6.106299877E0,-1.055700016E1,-2.095000029E0
1.155997812E1,-6.232399940E0,-1.189989948E1,-4.408099651E0
1.156999062E1,-5.077300072E0,-1.333629990E1,-5.880499840E0
1.158000156E1,-3.268499851E0,-1.466370010E1,-6.983899593E0
1.158998125E1,-1.118600011E0,-1.568459988E1,-8.068300247E0
1.159999219E1,1.070199966E0,-1.632099915E1,-9.601599693E0
1.160997188E1,2.814999819E0,-1.657289886E1,-1.115279961E1
1.161998281E1,4.137599945E0,-1.639859962E1,-1.221249962E1
1.162999375E1,4.984299660E0,-1.567819977E1,-1.292959976E1
1.163997344E1,5.394299984E0,-1.463700008E1,-1.352379990E1
1.164998438E1,5.438899994E0,-1.348929977E1,-1.393069935E1
1.165999531E1,5.032099724E0,-1.228559971E1,-1.380709934E1
1.166997656E1,4.403999805E0,-1.072739983E1,-1.304089928E1
1.167998594E1,3.686899900E0,-8.776899338E0,-1.179290009E1
1.168999844E1,3.321300030E0,-6.616499901E0,-1.037919998E1
1.169997813E1,3.255699873E0,-4.181200027E0,-9.247300148E0
1.170998906E1,3.726999998E0,-1.940799952E0,-8.052100182E0
1.172000000E1,4.426199913E0,-1.666999906E-1,-6.355399609E0
1.172997969E1,5.178199768E0,9.307999611E-1,-3.996999979E0
1.173999062E1,6.048299789E0,1.564000010E0,-6.658999920E-1
1.175000156E1,5.516499996E0,2.327199936E0,3.374799967E0
1.175998125E1,2.913300037E0,4.330100060E0,8.864799500E0
1.176999375E1,-1.274899960E0,7.278699875E0,1.617440033E1
1.177997188E1,-5.044899940E0,1.144499969E1,2.393879890E1
1.178998438E1,-5.818299770E0,1.608469963E1,2.838990021E1
1.179999531E1,-3.502599955E0,2.056769943E1,3.107129860E1
1.180997500E1,-3.817999959E-1,2.354979897E1,3.509449768E1
1.181998594E1,2.898200035E0,2.254839897E1,3.956900024E1
1.182999688E1,5.219500065E0,1.916409874E1,3.946409988E1
1.183997656E1,6.596699715E0,1.566579914E1,3.416909790E1
1.184998750E1,7.465299606E0,1.280889988E1,2.585529900E1
1.185999844E1,6.955499649E0,1.069699955E1,1.724549866E1
1.186997813E1,5.811399937E0,8.970299721E0,9.345099449E0
1.187999063E1,4.039700031E0,7.520099640E0,2.357199907E0
1.189000156E1,2.311100006E0,6.244599819E0,-3.304299831E0
1.189998125E1,9.460999966E-1,4.590300083E0,-6.867799759E0
1.190999219E1,-3.278999925E-1,2.904000044E0,-8.811800003E0
1.191997188E1,-1.707499981E0,1.301999927E0,-1.008300018E1
1.192998281E1,-2.996999979E0,-9.929999709E-2,-1.072489929E1
1.193999375E1,-4.110899925E0,-1.073499918E0,-1.101669979E1
1.194997344E1,-4.927499771E0,-1.622499943E0,-1.119689941E1
1.195998438E1,-5.251599789E0,-1.606199980E0,-1.169289970E1
1.196999688E1,-5.246099949E0,-1.163599968E0,-1.249520016E1
1.197997500E1,-4.996699810E0,-4.357999861E-1,-1.343519974E1
1.198998594E1,-4.660200119E0,3.648999929E-1,-1.407189941E1
1.199999844E1,-4.536099911E0,1.122499943E0,-1.419799995E1
1.200997812E1,-4.403999805E0,1.969699979E0,-1.352799988E1
1.201998906E1,-4.776499748E0,2.898599863E0,-1.239909935E1
1.203000000E1,-5.191499710E0,3.640100002E0,-1.076589966E1
1.203997969E1,-5.495699883E0,4.184999943E0,-8.576399803E0
1.204999063E1,-5.523699760E0,4.920300007E0,-6.160099983E0
1.206000156E1,-5.359699726E0,5.847899914E0,-3.456499815E0
1.206998125E1,-4.682899952E0,6.468299866E0,2.198999971E-1
1.207999375E1,-3.406199932E0,6.518699646E0,5.200399876E0
1.208997188E1,-1.017499924E0,6.463599682E0,1.035149956E1
1.209998281E1,6.802999973E-1,6.347399712E0,1.379369926E1
1.210999531E1,9.475999475E-1,6.318899632E0,1.618860054E1
1.211997500E1,2.900999784E-1,6.592999935E0,1.983790016E1
1.212998594E1,-9.842000008E-1,7.146999836E0,2.372189903E1
1.213999688E1,-8.394999504E-1,7.404999733E0,2.551929855E1
1.214997656E1,1.078699946E0,8.285699844E0,2.380319977E1
1.215998750E1,4.452799797E0,8.822899818E0,2.124569893E1
1.216999844E1,8.480099678E0,7.837699890E0,2.036039925E1
1.217997812E1,1.097139931E1,5.408400059E0,2.052369881E1
1.218999062E1,1.091969967E1,2.244099855E0,1.970129967E1
1.220000156E1,8.658299446E0,-1.265799999E0,1.785019875E1
1.220998125E1,5.078899860E0,-3.879199982E0,1.485289955E1
1.221999219E1,2.081899881E0,-5.261099815E0,1.055859947E1
1.222997188E1,1.111999974E-1,-5.304299831E0,5.910199642E0
1.223998281E1,-8.576999903E-1,-4.909599781E0,1.569199920E0
1.224999375E1,-1.082800031E0,-5.348599911E0,-1.737499952E0
1.225997344E1,-1.192700028E0,-6.135599613E0,-3.903299809E0
1.226998438E1,-1.160899997E0,-7.680799961E0,-5.371399879E0
1.227999531E1,-1.220099926E0,-9.965999603E0,-6.188799858E0
1.228997656E1,-1.365399957E0,-1.231169987E1,-5.886799812E0
1.229998594E1,-1.129999995E0,-1.423950005E1,-5.363299847E0
1.230999844E1,-1.766999960E-1,-1.566659927E1,-5.275799751E0
1.231997812E1,1.249400020E0,-1.606739998E1,-6.701699734E0
1.232998906E1,3.097199917E0,-1.569809914E1,-8.997900009E0
1.234000000E1,4.562299728E0,-1.486819935E1,-1.149580002E1
1.234997969E1,4.333099842E0,-1.424639988E1,-1.282660007E1
1.235999062E1,4.938399792E0,-1.303369999E1,-1.300489998E1
1.237000156E1,4.886399746E0,-1.156629944E1,-1.368279934E1
1.237998125E1,3.917500019E0,-1.003450012E1,-1.394369984E1
1.238999219E1,2.259799957E0,-8.489299774E0,-1.380919933E1
1.239997344E1,1.599999960E-3,-6.875000000E0,-1.344159985E1
1.240998438E1,-2.101500034E0,-4.960199833E0,-1.203319931E1
1.241999531E1,-3.092000008E0,-3.077499866E0,-9.312799454E0
1.242997500E1,-2.945799828E0,-1.026099920E0,-6.036599636E0
1.243998594E1,-2.132299900E0,7.669000030E-1,-2.933599949E0
1.244999688E1,-8.247999549E-1,2.118000031E0,-2.345999926E-1
1.245997656E1,4.506999850E-1,3.190799952E0,2.643999815E0
1.246998750E1,7.630999684E-1,4.504699707E0,6.604799747E0
1.248000000E1,-1.903999895E-1,6.728699684E0,1.212709999E1
1.248997969E1,-2.287099838E0,1.000439930E1,1.854459953E1
1.249999062E1,-3.557899952E0,1.316370010E1,2.488269997E1
1.251000156E1,-3.085799932E0,1.575589943E1,3.147069931E1
1.251998125E1,-2.848999798E-1,1.724819946E1,3.736510086E1
1.252999219E1,3.449999809E0,1.792490005E1,4.053839874E1
1.253997188E1,7.319299698E0,1.762940025E1,4.048209763E1
1.254998281E1,9.946499825E0,1.654669952E1,3.756250000E1
1.255999375E1,1.037309933E1,1.489829922E1,3.271979904E1
1.256997344E1,8.724100113E0,1.253979969E1,2.659669876E1
1.257998438E1,5.452499866E0,1.019099998E1,1.947489929E1
1.258999531E1,1.797899961E0,8.163100243E0,1.253779984E1
1.259997656E1,-1.164199948E0,6.795399666E0,6.217599869E0
1.260998594E1,-3.430399895E0,6.025499821E0,3.084999919E-1
1.261999844E1,-4.397200108E0,5.292399883E0,-4.598899841E0
1.262997813E1,-4.406699657E0,4.164099693E0,-8.424399376E0
1.263998906E1,-4.138199806E0,2.719099998E0,-1.113189983E1
1.265000000E1,-3.839699984E0,1.228500009E0,-1.335190010E1
1.265997969E1,-3.706699848E0,-2.287999988E-1,-1.481479931E1
1.266999062E1,-3.682799816E0,-1.083199978E0,-1.568019962E1
1.268000156E1,-3.746799946E0,-1.535599947E0,-1.606970024E1
1.268998125E1,-3.727799892E0,-1.439700007E0,-1.594429970E1
1.269999375E1,-4.034500122E0,-8.111999631E-1,-1.593009949E1
1.270997344E1,-4.347899914E0,1.772999913E-1,-1.617749977E1
1.271998438E1,-4.455800056E0,1.128899932E0,-1.636359978E1
1.272999531E1,-4.545799732E0,2.081899881E0,-1.608759880E1
1.273997500E1,-4.804399967E0,3.110800028E0,-1.549639988E1
1.274998594E1,-4.985399723E0,3.800400019E0,-1.480789948E1
1.275999688E1,-5.163399696E0,4.561299801E0,-1.401519966E1
1.276997656E1,-4.866799831E0,5.167599678E0,-1.244789982E1
1.277998906E1,-4.349800110E0,5.068199635E0,-9.613999367E0
1.279000000E1,-3.201799870E0,4.267399788E0,-6.173099995E0
1.279997812E1,-1.281899929E0,3.293900013E0,-1.490599990E0
1.280999063E1,1.004400015E0,2.568199873E0,3.547799826E0
1.282000156E1,2.447399855E0,2.681900024E0,7.467499733E0
1.282998125E1,1.770599961E0,3.910499811E0,1.048269939E1
1.283999219E1,-3.067999780E-1,6.214099884E0,1.416459942E1
1.284997188E1,-2.204499960E0,9.197299957E0,1.776819992E1
1.285998281E1,-2.391499996E0,1.301699924E1,1.963640022E1
1.286999375E1,9.981999993E-1,1.569659996E1,1.924489975E1
1.287997344E1,6.724499702E0,1.535129929E1,1.811030006E1
1.288998438E1,1.097659969E1,1.238679981E1,1.694269943E1
1.289999688E1,1.280109978E1,6.953799725E0,1.585519981E1
1.290997656E1,1.215059948E1,3.024999797E-1,1.374300003E1
1.291998750E1,9.156199455E0,-5.860599995E0,1.077839947E1
1.292999844E1,4.399399757E0,-1.036399937E1,9.008099556E0
1.293997813E1,-2.865000069E-1,-1.292869949E1,8.876099586E0
1.294998906E1,-3.472499847E0,-1.395909977E1,8.050999641E0
1.296000000E1,-4.862799644E0,-1.375479984E1,5.704699993E0
1.296997969E1,-4.770599842E0,-1.297029972E1,2.290199995E0
1.297999219E1,-3.542599916E0,-1.212150002E1,-7.515999675E-1
1.299000313E1,-2.131099939E0,-1.114769936E1,-2.002099991E0
1.299998125E1,-9.212999940E-1,-1.048950005E1,-1.370899916E0
1.300999375E1,-1.745999902E-1,-1.046399975E1,4.942999780E-1
1.301997344E1,-2.078000009E-1,-1.085809994E1,3.285399914E0
1.302998438E1,-7.289999723E-1,-1.111779976E1,5.588699818E0
1.303999531E1,-3.419999778E-1,-1.158909988E1,6.407799721E0
1.304997500E1,9.787999988E-1,-1.183689976E1,5.874000072E0
1.305998594E1,3.175400019E0,-1.157069969E1,3.909999847E0
1.306999688E1,5.856499672E0,-1.119899940E1,1.091099977E0
1.307997656E1,7.572199821E0,-1.011259937E1,-2.505499840E0
1.308998750E1,8.064499855E0,-8.472999573E0,-5.695499897E0
1.310000000E1,7.618199825E0,-6.809299946E0,-7.754299641E0
1.310997969E1,6.160299778E0,-5.204199791E0,-8.499799728E0
1.311999063E1,4.033800125E0,-3.635399818E0,-7.734099865E0
1.313000000E1,2.003099918E0,-2.258599997E0,-5.963599682E0
1.313998125E1,1.319999993E-1,-1.310599923E0,-3.575699806E0
1.314999219E1,-1.283900023E0,-7.827999592E-1,-1.160300016E0
1.315997188E1,-1.522499919E0,-4.707999825E-1,8.820999861E-1
1.316998281E1,-5.339999795E-1,-2.303999960E-1,2.908399820E0
1.317999375E1,8.308999538E-1,2.732000053E-1,4.617599964E0
1.318997500E1,1.679700017E0,2.660000026E-1,6.640100002E0
1.319998438E1,1.604299903E0,-9.824999571E-1,9.193499565E0
1.320999688E1,1.012699962E0,-1.912999988E0,1.032049942E1
1.321997656E1,3.506000042E-1,-6.721000075E-1,1.038049984E1
1.322998750E1,8.379999548E-2,1.185899973E0,1.229199982E1
1.323999844E1,-2.099900007E0,1.996099949E0,1.820890045E1
1.324997812E1,-5.183000088E0,1.687299967E0,2.526759911E1
1.325998906E1,-7.832299709E0,1.627299905E0,2.884829903E1
1.327000000E1,-9.049900055E0,2.737299919E0,2.607899857E1
1.327997969E1,-8.274000168E0,5.355700016E0,1.821209908E1
1.328999063E1,-6.050899982E0,8.539099693E0,8.873299599E0
1.330000313E1,-2.795300007E0,1.142339993E1,2.088199854E0
1.330998281E1,5.823999643E-1,1.344779968E1,-2.575199842E0
1.331999375E1,3.337299824E0,1.399659920E1,-5.619899750E0
1.332997344E1,4.707900047E0,1.369049931E1,-7.820099831E0
1.333998438E1,4.362499714E0,1.265159988E1,-9.249300003E0
1.334999531E1,3.737900019E0,1.106479931E1,-9.671699524E0
1.335997500E1,3.041499853E0,9.333799362E0,-8.854599953E0
1.336998594E1,2.017999887E0,7.503699780E0,-7.549099922E0
1.337999688E1,4.001999795E-1,6.106400013E0,-6.310100079E0
1.338997656E1,-1.305299997E0,5.229700089E0,-5.804299831E0
1.339998906E1,-2.593699932E0,5.149699688E0,-6.300399780E0
1.341000000E1,-3.710199833E0,5.948800087E0,-7.710599899E0
1.341997969E1,-4.503099918E0,6.566199780E0,-9.123600006E0
1.342999375E1,-5.146800041E0,7.357199669E0,-1.005609989E1
1.344000156E1,-5.949899673E0,7.847899914E0,-1.001669979E1
1.344998125E1,-6.774699688E0,8.019700050E0,-9.127299309E0
1.345999219E1,-6.427199841E0,7.930899620E0,-7.430199623E0
1.346997188E1,-7.155699730E0,6.971999645E0,-6.735899925E0
1.347998281E1,-7.666399956E0,6.228299618E0,-3.698499918E0
1.348999531E1,-7.795899868E0,5.166699886E0,8.476999998E-1
1.349997500E1,-7.666499615E0,4.173200130E0,5.568299770E0
1.350998438E1,-7.253399849E0,3.252799988E0,9.357199669E0
1.351999688E1,-6.121799946E0,2.608599901E0,1.190499973E1
1.352997656E1,-4.613299847E0,2.607499838E0,1.367910004E1
1.353998750E1,-2.991199970E0,2.634899855E0,1.619879913E1
1.354999844E1,-1.331599951E0,2.276099920E0,1.932740021E1
1.355997812E1,7.865999937E-1,1.544499993E0,2.183169937E1
1.356998906E1,2.947700024E0,1.164299965E0,2.189349937E1
1.358000000E1,5.918799877E0,1.256099939E0,1.917560005E1
1.358997969E1,9.180199623E0,1.083099961E0,1.646829987E1
1.359999219E1,1.191919994E1,4.899999797E-1,1.494179916E1
1.361000312E1,1.323449993E1,-7.414999604E-1,1.494159985E1
1.361998281E1,1.281719971E1,-2.919299841E0,1.447089958E1
1.362999375E1,1.104339981E1,-5.072099686E0,1.239869976E1
1.363997344E1,8.475799561E0,-6.648299694E0,9.541600227E0
1.364998438E1,5.444099903E0,-7.550599575E0,6.784800053E0
1.365999531E1,2.993199825E0,-7.953099728E0,4.266900063E0
1.366997500E1,9.612999558E-1,-7.827499866E0,1.563199997E0
1.367998594E1,-8.410000056E-2,-7.532399654E0,-1.560199976E0
1.368999844E1,-4.414999783E-1,-7.265199661E0,-3.888099909E0
1.369997656E1,-5.146999955E-1,-7.023200035E0,-5.224299908E0
1.370998906E1,-6.291999817E-1,-7.340699673E0,-5.492399693E0
1.372000000E1,-7.744999528E-1,-7.942599773E0,-5.317199707E0
1.372997969E1,-6.017000079E-1,-8.755700111E0,-5.006000042E0
1.373999062E1,1.199999941E-3,-9.555099487E0,-4.904500008E0
1.375000156E1,1.023800015E0,-1.032789993E1,-4.734699726E0
1.375998125E1,2.532999992E0,-1.102019978E1,-4.723999977E0
1.376999219E1,3.919600010E0,-1.173189926E1,-5.136699677E0
1.377997188E1,5.002999783E0,-1.190549946E1,-5.958899975E0
1.378998281E1,5.438999653E0,-1.143299961E1,-7.174499989E0
1.379999375E1,5.307399750E0,-1.051840019E1,-8.294300079E0
1.380997500E1,4.555799961E0,-8.980999947E0,-8.995200157E0
1.381998438E1,3.571899891E0,-6.914199829E0,-9.276800156E0
1.382999688E1,2.634799957E0,-4.813399792E0,-8.786600113E0
1.383997656E1,2.126699924E0,-2.900399923E0,-7.759099960E0
1.384998750E1,2.445299864E0,-1.194399953E0,-6.281799793E0
1.385999844E1,3.206099987E0,4.348999858E-1,-4.230400085E0
1.386997813E1,3.681299925E0,1.827999949E0,-2.413699865E0
1.387998906E1,3.074699879E0,3.121299982E0,-1.007300019E0
1.389000000E1,1.996299982E0,4.507999897E0,2.581999898E-1
1.389997969E1,2.716999948E-1,6.149899960E0,4.617300034E0
1.390999062E1,-1.243799925E0,7.902499676E0,1.148110008E1
1.392000313E1,-1.823599935E0,1.112249947E1,1.820890045E1
1.392998438E1,-1.711300015E0,1.457959938E1,2.275529861E1
1.393999375E1,-1.299399972E0,1.699769974E1,2.535079956E1
1.394997344E1,-8.781999946E-1,1.725519943E1,2.686689949E1
1.395998438E1,-2.886999846E-1,1.631699944E1,2.788419914E1
1.396999531E1,2.647999823E-1,1.514689922E1,2.730849838E1
1.397997500E1,5.173999667E-1,1.403889942E1,2.397149849E1
1.398998594E1,3.488000035E-1,1.332289982E1,1.830119896E1
1.399999844E1,-7.677999735E-1,1.273180008E1,1.120219994E1
1.400997656E1,-2.096400023E0,1.218919945E1,4.650000095E0
1.401998906E1,-3.342399836E0,1.116749954E1,-5.011000037E-1
1.403000000E1,-4.228600025E0,9.828999519E0,-4.837800026E0
1.403997969E1,-4.646500111E0,7.812500000E0,-8.005999565E0
1.404999063E1,-4.770199776E0,5.147699833E0,-1.052069950E1
1.406000156E1,-4.466399670E0,2.980899811E0,-1.191549969E1
1.406998125E1,-4.361099720E0,1.323099971E0,-1.177390003E1
1.407999219E1,-4.262499809E0,-9.939999878E-2,-1.053730011E1
1.408997344E1,-4.437200069E0,-9.588999748E-1,-9.618000031E0
1.409998281E1,-4.712599754E0,-1.289199948E0,-9.831799507E0
1.410999531E1,-5.000000000E0,-1.005800009E0,-1.104609966E1
1.411997500E1,-4.955599785E0,-3.967999816E-1,-1.254220009E1
1.412998594E1,-5.029599667E0,3.100999892E-1,-1.341479969E1
1.413999688E1,-5.571199894E0,1.358099937E0,-1.339050007E1
1.414997656E1,-6.394000053E0,2.332499981E0,-1.244950008E1
1.415998750E1,-7.172199726E0,2.975999832E0,-1.056569958E1
1.416999844E1,-7.750199795E0,3.200500011E0,-8.289699554E0
1.417997813E1,-7.639599800E0,3.274299860E0,-5.743899822E0
1.418998906E1,-6.916199684E0,3.325299978E0,-3.382799864E0
1.420000156E1,-5.036099911E0,3.492899895E0,-1.317299962E0
1.420997969E1,-2.592700005E0,4.252299786E0,9.167999625E-1
1.421999219E1,-7.134999633E-1,5.311699867E0,3.497299910E0
1.423000313E1,-1.368999958E0,6.495499611E0,7.397099972E0
1.423998281E1,-3.604599953E0,7.795599937E0,1.306320000E1
1.424999375E1,-5.775099754E0,8.769000053E0,1.937800026E1
1.425997344E1,-5.830599785E0,9.345799446E0,2.442339897E1
1.426998438E1,-4.003499985E0,9.507399559E0,2.597959900E1
1.427999531E1,-3.138999939E-1,9.379300117E0,2.545819855E1
1.428997500E1,4.235700130E0,8.097499847E0,2.433179855E1
1.429998594E1,8.579899788E0,5.907499790E0,2.271719933E1
1.430999688E1,1.168540001E1,3.949499846E0,2.027379990E1
1.431997812E1,1.302759933E1,1.890199900E0,1.637849998E1
1.432998906E1,1.311669922E1,-3.716999888E-1,1.116139984E1
1.434000000E1,1.223079967E1,-2.314899921E0,6.466099739E0
1.434997969E1,1.052719975E1,-3.678799868E0,2.799899817E0
1.435999062E1,8.396800041E0,-4.822899818E0,4.351999760E-1
1.437000156E1,6.465799809E0,-5.887700081E0,-1.118099928E0
1.437998125E1,4.764499664E0,-6.953999996E0,-2.409299850E0
1.438999375E1,3.390599966E0,-8.406999588E0,-3.287899971E0
1.439997344E1,2.403899908E0,-9.852699280E0,-3.555899858E0
1.440998281E1,1.754699945E0,-1.156289959E1,-3.444199800E0
1.441999531E1,1.395999908E0,-1.310649967E1,-3.101399899E0
1.442997500E1,1.752699971E0,-1.429339981E1,-3.182399988E0
1.443998438E1,2.928999901E0,-1.551239967E1,-4.307300091E0
1.444999688E1,4.237400055E0,-1.621059990E1,-5.998199940E0
1.445997656E1,5.376199722E0,-1.633810043E1,-8.211199760E0
1.446998750E1,6.365900040E0,-1.569419956E1,-1.054089928E1
1.447999844E1,6.741899967E0,-1.454879951E1,-1.256479931E1
1.448997812E1,6.250599861E0,-1.323359966E1,-1.380620003E1
1.449998906E1,4.694600105E0,-1.187899971E1,-1.377299976E1
1.451000156E1,2.556699991E0,-1.046599960E1,-1.237329960E1
1.451997969E1,2.334999889E-1,-8.908999443E0,-9.801499367E0
1.452999219E1,-1.855199933E0,-7.382299900E0,-7.489099979E0
1.453997188E1,-3.656899929E0,-5.918399811E0,-5.976399899E0
1.454998281E1,-5.300899982E0,-4.249000072E0,-5.501599789E0
1.455999375E1,-5.091899872E0,-2.615000010E0,-5.853699684E0
1.456997344E1,-6.186899662E0,-1.688799977E0,-4.821899891E0
1.457998438E1,-7.154699802E0,6.459999830E-2,-5.250899792E0
1.458999531E1,-7.527099609E0,1.595999956E0,-4.418600082E0
1.459997656E1,-6.894399643E0,3.506199837E0,-5.546999574E-1
1.460998594E1,-6.584099770E0,5.682799816E0,6.738699913E0
1.461999844E1,-5.171000004E0,6.676199913E0,1.625869942E1
1.462997813E1,-3.214399815E0,8.113100052E0,2.590049934E1
1.463998906E1,-5.401999950E-1,1.113000011E1,3.227429962E1
1.465000000E1,5.574500084E0,1.380349922E1,3.492760086E1
1.465997969E1,1.457669926E1,1.509399986E1,3.616749954E1
1.466999062E1,2.141749954E1,1.509529972E1,3.639089966E1
1.468000156E1,2.245759964E1,1.342299938E1,3.504129791E1
1.468998125E1,1.809230042E1,1.116039944E1,3.215559769E1
1.469999375E1,1.132299995E1,9.483399391E0,2.796279907E1
1.470997344E1,4.872999668E0,8.813399315E0,2.290089989E1
1.471998281E1,4.406999946E-1,8.649899483E0,1.724969864E1
1.472999531E1,-2.108799934E0,8.469399452E0,1.141230011E1
1.473997500E1,-3.252699852E0,8.182099342E0,5.707299709E0
1.474998594E1,-3.422399998E0,7.853399754E0,3.707999885E-1
1.475999688E1,-3.027899981E0,7.164700031E0,-3.975600004E0
1.476997656E1,-2.693699837E0,6.307099819E0,-6.714200020E0
1.477998750E1,-2.830799818E0,5.583899975E0,-8.209400177E0
1.478999844E1,-3.187399864E0,5.068900108E0,-8.428999901E0
1.479997812E1,-3.677599907E0,4.844999790E0,-8.240499496E0
1.480999063E1,-4.304399967E0,4.717999935E0,-8.753799438E0
1.482000156E1,-5.374899864E0,5.091300011E0,-1.003439999E1
1.482998125E1,-6.530099869E0,5.786799908E0,-1.165600014E1
1.483999062E1,-7.533099651E0,6.597300053E0,-1.326319981E1
1.484997188E1,-8.531199455E0,7.357100010E0,-1.418799973E1
1.485998281E1,-9.077899933E0,7.971299648E0,-1.402399921E1
1.486999375E1,-9.622699738E0,8.237599373E0,-1.286929989E1
1.487997344E1,-1.022519970E1,8.142600060E0,-1.133449936E1
1.488998438E1,-1.099809933E1,7.602999687E0,-9.624099731E0
1.489999688E1,-1.149759960E1,6.739099979E0,-8.333299637E0
1.490997656E1,-1.098639965E1,5.607999802E0,-7.535199642E0
1.491998594E1,-9.655399323E0,4.354000092E0,-7.310899734E0
1.492999844E1,-7.850499630E0,2.822599888E0,-6.425399780E0
1.493997813E1,-6.373799801E0,1.363299966E0,-3.327799797E0
1.494998906E1,-5.903500080E0,5.494999886E-1,4.239999950E-1
1.496000000E1,-6.349899769E0,1.082499981E0,3.376199961E0
1.496997969E1,-6.555199623E0,1.987499952E0,7.042299747E0
1.497999063E1,-3.939199924E0,3.223799944E0,1.545189953E1
1.499000156E1,2.076900005E0,3.062899828E0,2.591249847E1
1.499998125E1,1.080659962E1,9.350000024E-1,3.211230087E1
1.500999219E1,1.942959976E1,-1.522199988E0,3.145229912E1
1.501997344E1,2.411779976E1,-3.482299805E0,2.760619926E1
1.502998438E1,2.439439964E1,-5.002299786E0,2.593519974E1
1.503999531E1,2.159379959E1,-6.664399624E0,2.526560020E1
1.504997500E1,1.659309959E1,-7.712100029E0,2.278649902E1
1.505998594E1,1.128539944E1,-8.446399689E0,1.794279861E1
1.506999688E1,6.799900055E0,-9.106800079E0,1.283839989E1
1.507997656E1,4.054599762E0,-9.447699547E0,8.495699883E0
1.508998750E1,3.077299833E0,-9.648599625E0,5.482299805E0
1.509999844E1,2.712800026E0,-9.711500168E0,3.171599865E0
1.510997969E1,2.460999966E0,-9.644299507E0,1.567899942E0
1.511998906E1,1.859299898E0,-9.687799454E0,5.543999672E-1
1.513000156E1,1.027899981E0,-9.729700089E0,-3.003999889E-1
1.513998125E1,5.763999820E-1,-9.664599419E0,-1.661199927E0
1.514999219E1,3.407000005E-1,-9.958000183E0,-3.922399998E0
1.515997188E1,4.048999846E-1,-1.033189964E1,-6.810599804E0
1.516998281E1,6.579999924E-1,-1.100839996E1,-9.542599678E0
1.517999375E1,1.178300023E0,-1.179430008E1,-1.156639957E1
1.518997344E1,2.024499893E0,-1.165499973E1,-1.240499973E1
1.519998438E1,3.017999887E0,-1.094600010E1,-1.236419964E1
1.520999688E1,3.538100004E0,-9.964200020E0,-1.163379955E1
1.521997656E1,3.567399979E0,-8.864500046E0,-1.044740009E1
1.522998594E1,3.177399874E0,-7.723499775E0,-8.876500130E0
1.523999688E1,2.368499994E0,-6.481099606E0,-7.507499695E0
1.524997812E1,1.181699991E0,-5.300899982E0,-6.649899960E0
1.525998906E1,1.990999877E-1,-3.926100016E0,-6.159599781E0
1.527000000E1,-5.148999691E-1,-2.613199949E0,-5.646499634E0
1.527997969E1,-2.492999882E-1,-1.065500021E0,-4.875099659E0
1.528999063E1,6.258999705E-1,5.015999675E-1,-2.800499916E0
1.530000313E1,2.259299994E0,1.919499993E0,3.227999806E-1
1.530998125E1,3.122299910E0,2.997399807E0,5.024499893E0
1.531999375E1,2.252899885E0,4.953899860E0,1.277569962E1
1.532997344E1,6.933000088E-1,7.048499584E0,1.995380020E1
1.533998438E1,-1.164799929E0,9.994699478E0,2.416160011E1
1.534999531E1,-9.127999544E-1,1.216549969E1,2.777109909E1
1.535997500E1,8.902999759E-1,1.294259930E1,3.175689888E1
1.536998594E1,1.977999926E0,1.219349957E1,3.397859955E1
1.537999688E1,1.976799965E0,1.131540012E1,3.266119766E1
1.538997656E1,1.490700006E0,1.067959976E1,2.717739868E1
1.539998750E1,1.091499925E0,1.046210003E1,1.944739914E1
1.540999844E1,7.127999663E-1,1.058879948E1,1.166749954E1
1.541997812E1,-1.312000006E-1,1.071679974E1,4.869800091E0
1.542999062E1,-1.342700005E0,1.033150005E1,-1.034399986E0
1.544000312E1,-2.323299885E0,9.264900208E0,-5.380099773E0
1.544998125E1,-3.416299820E0,8.685199738E0,-8.841400146E0
1.545999219E1,-3.474299908E0,7.354099751E0,-1.133239937E1
1.546997500E1,-3.137499809E0,5.671799660E0,-1.246239948E1
1.547998281E1,-2.570600033E0,4.375000000E0,-1.196000004E1
1.548999375E1,-1.633899927E0,3.308099985E0,-1.080630016E1
1.549997344E1,-7.745999694E-1,2.465600014E0,-1.033519936E1
1.550998438E1,-3.811999857E-1,1.957399964E0,-1.109949970E1
1.551999688E1,-4.818999767E-1,1.920799971E0,-1.235369968E1
1.552997500E1,-8.885999918E-1,2.077299833E0,-1.347659969E1
1.553998594E1,-1.501899958E0,2.148000002E0,-1.376449966E1
1.554999844E1,-2.176399946E0,2.430399895E0,-1.341049957E1
1.555997812E1,-3.155499935E0,2.361500025E0,-1.255669975E1
1.556998906E1,-4.063499928E0,2.427500010E0,-1.140509987E1
1.558000000E1,-4.912099838E0,2.423399925E0,-9.658800125E0
1.558997969E1,-5.852900028E0,2.427399874E0,-7.598399639E0
1.559999062E1,-6.689099789E0,2.137300014E0,-5.585099697E0
1.561000156E1,-6.615799904E0,1.768999934E0,-3.672199965E0
1.561998125E1,-5.463799953E0,1.270200014E0,-1.629400015E0
1.562999375E1,-3.775599957E0,8.179000020E-1,1.156700015E0
1.563997344E1,-2.359299898E0,7.313999534E-1,5.590199947E0
1.564998438E1,-1.917099953E0,6.789999604E-1,1.171059990E1
1.565999531E1,-2.863299847E0,5.637999773E-1,1.739099884E1
1.566997500E1,-3.115000010E0,9.461999536E-1,2.092700005E1
1.567998594E1,-2.656999826E0,1.224799991E0,2.028120041E1
1.568999688E1,-2.058199883E0,2.032999992E0,2.109910011E1
1.569997656E1,2.599000037E-1,2.341599941E0,2.238449860E1
1.570998906E1,4.107299805E0,1.262799978E0,2.508749962E1
1.571999844E1,6.807099819E0,-8.078999519E-1,2.678109932E1
1.572997969E1,8.370999336E0,-3.583299875E0,2.616179848E1
1.573999062E1,8.055600166E0,-5.938299656E0,2.331499863E1
1.575000156E1,6.432299614E0,-7.229699612E0,1.887579918E1
1.575998125E1,4.651099682E0,-7.529099941E0,1.405699921E1
1.576999219E1,3.189299822E0,-7.099199772E0,9.496099472E0
1.577997188E1,2.178799868E0,-6.171700001E0,5.334300041E0
1.578998281E1,1.563199997E0,-5.370100021E0,1.638899922E0
1.579999375E1,1.330699921E0,-5.068500042E0,-1.956599951E0
1.580997344E1,1.309999943E0,-5.215499878E0,-4.754300117E0
1.581998438E1,1.342700005E0,-5.899699688E0,-6.293999672E0
1.582999688E1,1.235700011E0,-6.829299927E0,-6.343299866E0
1.583997656E1,1.218299985E0,-7.951499939E0,-5.490699768E0
1.584998750E1,1.517699957E0,-8.880800247E0,-4.945300102E0
1.585999844E1,2.525699854E0,-9.505700111E0,-5.641599655E0
1.586997813E1,3.900299788E0,-9.984499931E0,-7.378299713E0
1.587998906E1,5.371500015E0,-1.012370014E1,-9.404899597E0
1.589000000E1,6.386099815E0,-1.003489971E1,-1.104930019E1
1.589997969E1,6.954899788E0,-9.751799583E0,-1.182979965E1
1.590999062E1,7.110199928E0,-9.412199974E0,-1.231250000E1
1.592000156E1,6.445899963E0,-8.874599457E0,-1.251270008E1
1.592998281E1,5.331299782E0,-7.924599648E0,-1.218219948E1
1.593999375E1,4.021100044E0,-6.599799633E0,-1.094709969E1
1.594997188E1,2.623100042E0,-5.075200081E0,-9.439799309E0
1.595998438E1,1.523999929E0,-3.596099854E0,-7.934099674E0
1.596999531E1,3.962000012E-1,-2.190399885E0,-6.571899891E0
1.597997500E1,-3.400000036E-1,-9.556999803E-1,-5.326600075E0
1.598998594E1,-5.895000100E-1,-2.447999865E-1,-3.083799839E0
1.599999688E1,-2.719999850E-1,1.611000001E-1,-7.992999554E-1
1.600997656E1,1.310000010E-2,6.909999847E-1,1.497200012E0
1.601998906E1,-6.141999960E-1,1.778899908E0,4.328299999E0
1.603000000E1,-2.086999893E0,3.842499971E0,9.695899963E0
1.603997969E1,-3.207099915E0,6.601899624E0,1.572189999E1
1.604999062E1,-3.595999956E0,9.402599335E0,1.979209900E1
1.606000156E1,-2.802599907E0,1.174219990E1,2.190149879E1
1.606998125E1,-1.835899949E0,1.353429985E1,2.350339890E1
1.607999219E1,-1.559199929E0,1.374379921E1,2.511009979E1
1.608997188E1,-2.752099991E0,1.288759995E1,2.658469963E1
1.609998281E1,-4.396399975E0,1.150609970E1,2.670059967E1
1.610999531E1,-5.734499931E0,1.030410004E1,2.404619980E1
1.611997344E1,-6.033499718E0,9.821599960E0,1.876479912E1
1.612998594E1,-5.441299915E0,9.923699379E0,1.236679935E1
1.613999688E1,-4.790100098E0,1.005119991E1,6.128399849E0
1.614997656E1,-4.269199848E0,9.886499405E0,1.485700011E0
1.615998594E1,-4.254099846E0,9.158199310E0,-1.887299895E0
1.616999844E1,-4.325299740E0,7.881299973E0,-4.348000050E0
1.617997812E1,-4.338599682E0,6.420799732E0,-6.100299835E0
1.618998906E1,-3.995599985E0,4.824299812E0,-7.349899769E0
1.620000000E1,-3.307899952E0,3.438299894E0,-8.302399635E0
1.620997969E1,-2.543999910E0,2.441999912E0,-9.121699333E0
1.621999219E1,-1.554499984E0,1.744399905E0,-9.928699493E0
1.623000312E1,-7.562999725E-1,1.410300016E0,-1.064639950E1
1.623998125E1,-2.468999922E-1,1.449399948E0,-1.146490002E1
1.624999375E1,-4.089999944E-2,1.576699972E0,-1.230009937E1
1.625997344E1,-1.409999933E-2,1.829899907E0,-1.314669991E1
1.626998438E1,-2.223999947E-1,2.136499882E0,-1.360989952E1
1.627999531E1,-5.641999841E-1,2.411700010E0,-1.329019928E1
1.628997500E1,-1.097499967E0,2.384099960E0,-1.218120003E1
1.629998594E1,-2.057100058E0,2.188899994E0,-1.043779945E1
1.630999688E1,-3.227299929E0,1.842199922E0,-8.524199486E0
1.631997813E1,-3.776899815E0,1.547099948E0,-5.995299816E0
1.632998750E1,-3.627599955E0,1.400200009E0,-2.814999819E0
1.634000000E1,-3.327199936E0,1.693099976E0,5.040000081E-1
1.634997969E1,-2.912699938E0,2.345599890E0,4.476999760E0
1.635999063E1,-2.944700003E0,3.441299915E0,1.058469963E1
1.637000156E1,-3.919999838E0,4.477699757E0,1.680929947E1
1.637998125E1,-5.076399803E0,5.815700054E0,2.036260033E1
1.638999219E1,-4.984799862E0,7.425099850E0,1.956019974E1
1.639997188E1,-3.632200003E0,8.456399918E0,1.740320015E1
1.640998281E1,-1.302500010E0,7.961499691E0,1.860499954E1
1.641999375E1,1.144400001E0,5.638199806E0,2.239009857E1
1.642997500E1,3.129899979E0,2.179399967E0,2.414929962E1
1.643998594E1,4.361099720E0,-2.163100004E0,2.321780014E1
1.644999688E1,4.262599945E0,-5.727599621E0,2.085569954E1
1.645997656E1,3.289099932E0,-7.994499683E0,1.755189896E1
1.646998750E1,2.037999868E0,-7.923899651E0,1.278189945E1
1.647999844E1,1.048799992E0,-6.881099701E0,6.462100029E0
1.648997812E1,4.585999846E-1,-5.564699650E0,1.349999905E-1
1.649998906E1,-4.048999846E-1,-4.154399872E0,-5.199199677E0
1.651000000E1,-8.579999804E-1,-3.547099829E0,-8.319000244E0
1.651997969E1,-8.463999629E-1,-4.240499973E0,-8.825900078E0
1.652999219E1,-1.114400029E0,-6.002299786E0,-7.518999577E0
1.654000313E1,-8.181999922E-1,-8.316399574E0,-5.575799942E0
1.654998281E1,2.249999903E-2,-9.997599602E0,-4.824100018E0
1.655999375E1,1.661499977E0,-1.111269951E1,-5.998199940E0
1.656997344E1,4.205899715E0,-1.110009956E1,-8.108099937E0
1.657998438E1,7.141999722E0,-1.020549965E1,-1.028619957E1
1.658999531E1,9.294699669E0,-8.611700058E0,-1.104119968E1
1.659997500E1,1.006139946E1,-7.269099712E0,-1.052610016E1
1.660998594E1,9.385799408E0,-6.459300041E0,-9.088799477E0
1.661999844E1,7.837199688E0,-6.147699833E0,-6.800099850E0
1.662997812E1,6.178599834E0,-6.086400032E0,-3.913899899E0
1.663998906E1,4.388499737E0,-5.371299744E0,-2.004499912E0
1.665000000E1,3.232699871E0,-3.992699862E0,-9.746999741E-1
1.665997969E1,2.809900045E0,-1.623499990E0,-2.490999997E-1
1.666999062E1,2.777899981E0,1.314199924E0,6.934999824E-1
1.668000156E1,3.306999922E0,4.414299965E0,3.326699972E0
1.668998125E1,2.962299824E0,6.587599754E0,8.559899330E0
1.669999219E1,1.105299950E0,7.245399952E0,1.495259953E1
1.670997188E1,-1.937500000E0,6.776099682E0,2.031550026E1
1.671998281E1,-3.316599846E0,6.590600014E0,2.200569916E1
1.672999531E1,-3.239399910E0,8.313300133E0,1.980309868E1
1.673997500E1,-1.218699932E0,1.141429996E1,1.805150032E1
1.674998594E1,5.008000135E-1,1.361699963E1,1.912769890E1
1.675999688E1,4.878999889E-1,1.354449940E1,2.075629997E1
1.676997656E1,5.428999662E-1,1.185409927E1,1.972049904E1
1.677998750E1,3.067999780E-1,1.128269958E1,1.969109917E1
1.678999844E1,2.635999918E-1,9.139299393E0,1.451299953E1
1.679997813E1,2.298000008E-1,7.517499924E0,7.082499981E0
1.680999062E1,5.146999955E-1,6.975499630E0,8.044999838E-1
1.682000000E1,1.075199962E0,6.630699635E0,-3.311499834E0
1.682997969E1,1.195099950E0,6.192599773E0,-5.905499935E0
1.683999219E1,1.093099952E0,5.559499741E0,-7.683699608E0
1.685000156E1,5.509999990E-1,4.570699692E0,-8.641599655E0
1.685998281E1,-1.048999950E-1,3.411399841E0,-8.575900078E0
1.686999375E1,-6.599000096E-1,2.031199932E0,-7.912199974E0
1.687997344E1,-1.038499951E0,7.324000001E-1,-6.491299629E0
1.688998438E1,-1.358699918E0,-7.386999726E-1,-5.066499710E0
1.689999531E1,-1.414799929E0,-1.976300001E0,-3.725699902E0
1.690997500E1,-1.389599919E0,-2.654700041E0,-2.517400026E0
1.691998594E1,-1.358999968E0,-2.899699926E0,-2.774699926E0
1.692999844E1,-1.202499986E0,-2.623999834E0,-4.447599888E0
1.693997812E1,-1.370899916E0,-2.113600016E0,-6.727699757E0
1.694998906E1,-1.857499957E0,-1.918399930E0,-8.453999519E0
1.696000000E1,-2.386299849E0,-1.750199914E0,-9.093799591E0
1.696997969E1,-3.067299843E0,-1.924699903E0,-8.854999542E0
1.697999063E1,-3.880399942E0,-1.912599921E0,-7.674799919E0
1.699000156E1,-4.477799892E0,-1.750000000E0,-6.301199913E0
1.699998125E1,-4.967700005E0,-1.543799996E0,-5.323800087E0
1.700999375E1,-5.348799706E0,-1.314700007E0,-4.776400089E0
1.701997188E1,-5.613399982E0,-8.930999637E-1,-4.139699936E0
1.702998438E1,-5.708299637E0,-5.906999707E-1,-3.312700033E0
1.703999531E1,-5.352900028E0,-4.585999846E-1,-2.591899872E0
1.704997500E1,-4.994100094E0,-1.219999939E-1,-2.088199854E0
1.705998594E1,-4.273200035E0,2.264999896E-1,-1.737699986E0
1.706999688E1,-3.570699930E0,4.590999782E-1,-1.149199963E0
1.707997656E1,-2.908399820E0,5.134999752E-1,-2.951999903E-1
1.708998750E1,-2.576200008E0,3.177999854E-1,9.589999914E-1
1.709999844E1,-1.961499929E0,2.305999994E-1,2.270999908E0
1.710997812E1,-1.211300015E0,2.613999844E-1,3.132200003E0
1.711999062E1,-2.768999934E-1,6.074999571E-1,4.083600044E0
1.713000000E1,1.105199933E0,1.198400021E0,6.618999958E0
1.713997969E1,2.755499840E0,1.719900012E0,1.111019993E1
1.714999062E1,3.228899956E0,2.017600060E0,1.555869961E1
1.716000312E1,2.833699942E0,3.232299805E0,1.801739883E1
1.716998281E1,1.898499966E0,5.197499752E0,1.647259903E1
1.717999375E1,1.127499938E0,7.000299931E0,1.378649998E1
1.718997344E1,1.320599914E0,8.227600098E0,1.324489975E1
1.719998438E1,2.704499960E0,8.594499588E0,1.507919979E1
1.720999531E1,4.358999729E0,7.564899921E0,1.710210037E1
1.721997500E1,4.999199867E0,5.510799885E0,1.731639862E1
1.722998594E1,4.389199734E0,2.809099913E0,1.582419968E1
1.723999844E1,3.088500023E0,1.636999995E-1,1.403709984E1
1.724997813E1,1.445699930E0,-1.842999935E0,1.199319935E1
1.725998906E1,-1.300000004E-3,-2.873899937E0,9.186100006E0
1.727000000E1,-7.991999984E-1,-3.330199957E0,5.693099976E0
1.727997812E1,-6.589999795E-1,-3.524699926E0,2.565599918E0
1.728999062E1,2.101999968E-1,-3.730000019E0,-5.144999623E-1
1.730000156E1,9.035999775E-1,-4.051099777E0,-2.965899944E0
1.730998125E1,1.312699914E0,-4.708600044E0,-4.401199818E0
1.731999219E1,1.708799958E0,-5.808499813E0,-4.745899677E0
1.732997188E1,2.050899982E0,-7.106199741E0,-3.765899897E0
1.733998281E1,2.370899916E0,-8.368599892E0,-1.888399959E0
1.734999531E1,3.062799931E0,-9.673199654E0,-3.251000047E-1
1.735997500E1,4.391799927E0,-1.086419964E1,1.444000006E-1
1.736998594E1,5.812299728E0,-1.140479946E1,-9.020999670E-1
1.737999688E1,6.947999954E0,-1.134980011E1,-3.143800020E0
1.738997656E1,7.765999794E0,-1.067579937E1,-5.753299713E0
1.739998750E1,8.114299774E0,-9.807299614E0,-8.258799553E0
1.740999844E1,7.964200020E0,-8.806399345E0,-9.913799286E0
1.741997812E1,7.119400024E0,-7.346599579E0,-1.082359982E1
1.742999063E1,5.919499874E0,-5.806699753E0,-1.084910011E1
1.744000000E1,4.486499786E0,-4.204999924E0,-1.036419964E1
1.744998125E1,3.170599937E0,-2.826799870E0,-9.315999985E0
1.745999219E1,1.851999998E0,-1.600799918E0,-6.999399662E0
1.746997188E1,5.159000158E-1,-6.847999692E-1,-3.365399837E0
1.747998281E1,-6.926000118E-1,3.941999972E-1,5.771999955E-1
1.748999375E1,-1.572999954E0,2.057199955E0,4.979300022E0
1.749997344E1,-2.241299868E0,4.018000126E0,8.659099579E0
1.750998438E1,-3.012099981E0,6.720099926E0,1.100549984E1
1.751999531E1,-3.683300018E0,9.989299774E0,1.151970005E1
1.752997656E1,-2.815099955E0,1.290460014E1,1.205089951E1
1.753998594E1,-1.620599985E0,1.406589985E1,1.477439976E1
1.754999844E1,-1.500000000E0,1.304710007E1,1.841099930E1
1.755997812E1,-2.630300045E0,1.103240013E1,2.112509918E1
1.756998906E1,-4.142199993E0,9.668000221E0,2.106079865E1
1.758000000E1,-5.439799786E0,9.353899956E0,1.756419945E1
1.758997969E1,-6.089499950E0,9.929100037E0,1.169269943E1
1.759999062E1,-6.231800079E0,1.080000019E1,5.356599808E0
1.761000156E1,-5.790599823E0,1.131719971E1,-1.145999953E-1
1.761998125E1,-4.969699860E0,1.084469986E1,-3.777099848E0
1.762999219E1,-4.029699802E0,9.665399551E0,-5.826799870E0
1.763997344E1,-3.551499844E0,8.331399918E0,-7.252499580E0
1.764998281E1,-2.970000029E0,6.223299980E0,-8.185500145E0
1.765999531E1,-2.576400042E0,4.174499989E0,-8.247300148E0
1.766997500E1,-2.467399836E0,2.693699837E0,-7.448699951E0
1.767998594E1,-2.345900059E0,1.490299940E0,-6.421700001E0
1.768999688E1,-2.184299946E0,6.513999701E-1,-6.378200054E0
1.769997656E1,-2.055700064E0,1.389999986E-1,-7.385299683E0
1.770998750E1,-1.994399905E0,-5.299999844E-3,-8.799599648E0
1.771999844E1,-1.996099949E0,1.851999909E-1,-1.005210018E1
1.772997813E1,-2.129099846E0,4.359999895E-1,-1.082149982E1
1.773999062E1,-2.491499901E0,6.080999970E-1,-1.048059940E1
1.775000156E1,-3.068099976E0,9.569000006E-1,-9.305899620E0
1.775998125E1,-3.701200008E0,1.290300012E0,-7.441099644E0
1.776999219E1,-3.929399967E0,1.648199916E0,-5.551399708E0
1.777997188E1,-3.902499914E0,2.151299953E0,-3.402400017E0
1.778998281E1,-4.255499840E0,2.708099842E0,-8.883999586E-1
1.779999375E1,-4.794799805E0,3.778899908E0,2.058699846E0
1.780997344E1,-5.213599682E0,4.838900089E0,6.307399750E0
1.781998438E1,-5.492300034E0,5.917799950E0,1.125549984E1
1.782999531E1,-5.418900013E0,6.796700001E0,1.607460022E1
1.783997656E1,-5.047899723E0,7.026499748E0,1.981739998E1
1.784998750E1,-4.805799961E0,6.328999996E0,2.184989929E1
1.785999844E1,-4.898600101E0,6.049699783E0,2.243610001E1
1.786997656E1,-4.124000072E0,6.242099762E0,2.177269936E1
1.787998906E1,-2.218999863E0,5.497900009E0,2.065159988E1
1.789000000E1,-2.289499998E0,5.808599949E0,2.027599907E1
1.789997969E1,9.679999948E-1,4.913899899E0,2.007689857E1
1.790999063E1,5.154699802E0,3.282399893E0,1.977820015E1
1.792000156E1,8.463899612E0,1.458199978E0,1.798900032E1
1.792998125E1,1.053959942E1,-8.622999787E-1,1.514400005E1
1.793999375E1,1.124759960E1,-3.182399988E0,1.236479950E1
1.794997344E1,1.037759972E1,-4.862799644E0,9.529600143E0
1.795998281E1,8.725600243E0,-5.826200008E0,6.558799744E0
1.796999375E1,6.996399879E0,-6.309899807E0,3.723699808E0
1.797997500E1,5.725199699E0,-6.631399632E0,1.060500026E0
1.798998594E1,5.243199825E0,-6.994199753E0,-1.392899990E0
1.799999688E1,5.220599651E0,-7.549599648E0,-3.524399996E0
1.800997656E1,5.604099751E0,-8.560500145E0,-5.025499821E0
1.801998750E1,6.003900051E0,-1.019889927E1,-5.706799984E0
1.802999844E1,6.150099754E0,-1.182359982E1,-5.567199707E0
1.803997812E1,6.647500038E0,-1.338189983E1,-4.368400097E0
1.804999062E1,7.708399773E0,-1.462609959E1,-3.316200018E0
1.806000156E1,9.581699371E0,-1.540949917E1,-3.721999884E0
1.806998125E1,1.257559967E1,-1.550279999E1,-6.261600018E0
1.807999219E1,1.472079945E1,-1.364229965E1,-1.069979954E1
1.808997188E1,1.496659946E1,-1.135829926E1,-1.625209999E1
1.809998281E1,1.398880005E1,-9.543499947E0,-2.012049866E1
1.810999375E1,1.142819977E1,-8.407499313E0,-2.100469971E1
1.811997344E1,7.265100002E0,-7.194900036E0,-1.812749863E1
1.812998438E1,2.312299967E0,-6.592299938E0,-1.264949989E1
1.813999688E1,-2.381000042E0,-5.949800014E0,-6.059000015E0
1.814997656E1,-6.451200008E0,-4.291500092E0,8.292999864E-1
1.815998750E1,-8.721599579E0,-2.245199919E0,6.429999828E0
1.816999844E1,-1.001229954E1,1.187999994E-1,8.899299622E0
1.817997812E1,-1.085369968E1,2.870299816E0,9.053500175E0
1.818998906E1,-1.238639927E1,5.804299831E0,1.049139977E1
1.820000000E1,-1.398189926E1,8.848299980E0,1.392059994E1
1.820997969E1,-1.553779984E1,1.119729996E1,1.785369873E1
1.821999062E1,-1.682919884E1,1.327439976E1,2.185939980E1
1.823000312E1,-1.805920029E1,1.466609955E1,2.430819893E1
1.823998281E1,-1.909409904E1,1.476909924E1,2.496169853E1
1.824999219E1,-1.909549904E1,1.400570011E1,2.524909973E1
1.825997344E1,-1.763719940E1,1.326049995E1,2.459049988E1
1.826998281E1,-1.505319977E1,1.306470013E1,2.201009941E1
1.827999531E1,-1.207129955E1,1.288229942E1,1.790359879E1
1.828997500E1,-8.626799583E0,1.249279976E1,1.312939930E1
1.829998594E1,-5.029099941E0,1.169519997E1,8.206899643E0
1.830999688E1,-1.395799994E0,1.097849941E1,3.670699835E0
1.831997656E1,2.457999945E0,1.008039951E1,-8.338999748E-1
1.832998750E1,5.616399765E0,8.878899574E0,-4.850500107E0
1.833999844E1,7.612799644E0,7.180500031E0,-7.354499817E0
1.834997812E1,8.179999352E0,5.601299763E0,-8.132999420E0
1.835999063E1,7.522500038E0,4.067399979E0,-8.136699677E0
1.837000156E1,6.190599918E0,2.706499815E0,-7.526299953E0
1.837998125E1,4.850999832E0,1.743499994E0,-7.000699997E0
1.838999219E1,3.597199917E0,1.074900031E0,-7.176199913E0
1.839997188E1,2.597100019E0,7.010999918E-1,-7.733899593E0
1.840998281E1,1.836299896E0,4.294999838E-1,-8.468699455E0
1.841999375E1,1.656399965E0,3.157999814E-1,-9.232500076E0
1.842997500E1,1.618899941E0,4.546999931E-1,-1.015299988E1
1.843998438E1,1.789499998E0,5.961999893E-1,-1.107189941E1
1.844999688E1,1.862999916E0,7.943999767E-1,-1.165810013E1
1.845997656E1,1.643000007E0,7.896999717E-1,-1.157819939E1
1.846998750E1,1.320199966E0,4.948999882E-1,-1.046500015E1
1.847999844E1,8.654999733E-1,-4.869999737E-2,-8.471699715E0
1.848997812E1,1.255999953E-1,-6.103000045E-1,-5.977499962E0
1.849998906E1,-1.437000036E-1,-9.976999760E-1,-2.990999937E0
1.851000000E1,2.836999893E-1,-1.170899987E0,-1.339999959E-2
1.851997969E1,1.001999974E-1,-9.724999666E-1,3.840299845E0
1.852999062E1,-1.056299925E0,-3.531999886E-1,9.917099953E0
1.854000156E1,-2.669399977E0,6.554999948E-1,1.697410011E1
1.854998125E1,-3.165299892E0,2.241899967E0,2.218959999E1
1.855999219E1,-1.537299991E0,3.515799999E0,2.451049995E1
1.856997344E1,4.787499905E0,2.850299835E0,2.497429848E1
1.857998281E1,1.372760010E1,9.880999923E-1,2.169319916E1
1.858999531E1,2.137109947E1,-1.781099916E0,1.809469986E1
1.859997500E1,2.363509941E1,-2.131000042E0,1.516909981E1
1.860998594E1,2.035589981E1,-1.009999990E0,1.160339928E1
1.861999688E1,1.475449944E1,-3.543999791E-1,6.877599716E0
1.862997656E1,7.787699699E0,8.712999821E-1,3.097399950E0
1.863998750E1,1.358399987E0,1.931999922E0,8.105999827E-1
1.865000000E1,-3.097599983E0,1.828399897E0,-7.475999594E-1
1.865997969E1,-5.478799820E0,5.654999614E-1,-2.092799902E0
1.866999062E1,-6.741099834E0,-8.262999654E-1,-3.420199871E0
1.868000156E1,-6.869400024E0,-2.367599964E0,-4.495599747E0
1.868997969E1,-6.343400002E0,-3.896199942E0,-5.394999981E0
1.869999219E1,-5.528699875E0,-5.679100037E0,-6.350899696E0
1.870997188E1,-4.591199875E0,-7.363599777E0,-6.649600029E0
1.871998281E1,-3.801599979E0,-8.724499702E0,-5.968800068E0
1.872999375E1,-3.122299910E0,-9.625699997E0,-5.197099686E0
1.873997344E1,-2.564800024E0,-1.008629990E1,-5.420599937E0
1.874998438E1,-2.236399889E0,-1.007999992E1,-6.676699638E0
1.875999688E1,-2.038100004E0,-9.797100067E0,-8.188199997E0
1.876997656E1,-2.026799917E0,-9.265199661E0,-9.088799477E0
1.877998750E1,-2.675099850E0,-8.251899719E0,-9.753799438E0
1.878999844E1,-3.485199928E0,-7.201999664E0,-9.925399780E0
1.879997813E1,-4.183700085E0,-5.945999622E0,-9.781700134E0
1.880998906E1,-4.784199715E0,-4.489799976E0,-9.237699509E0
1.882000000E1,-5.099099636E0,-2.836499929E0,-8.517399788E0
1.882997969E1,-4.787499905E0,-1.240899920E0,-7.265799999E0
1.883999219E1,-3.653199911E0,6.176999807E-1,-5.199800014E0
1.885000312E1,-1.582099915E0,2.631799936E0,-2.503499985E0
1.885998281E1,5.001999736E-1,4.581900120E0,2.143399954E0
1.886999375E1,2.331899881E0,5.531899929E0,9.208999634E0
1.887997344E1,4.066100121E0,4.958299637E0,1.836669922E1
1.888998438E1,5.198199749E0,4.175300121E0,2.434429932E1
1.889999531E1,5.229599953E0,5.353699684E0,2.434859848E1
1.890997500E1,5.134299755E0,8.955800056E0,1.990499878E1
1.891998594E1,4.432300091E0,1.315249920E1,1.514339924E1
1.892999844E1,3.409299850E0,1.668799973E1,1.263140011E1
1.893997656E1,2.706499815E0,1.800289917E1,1.267490005E1
1.894998906E1,2.779000044E0,1.673539925E1,1.426550007E1
1.896000000E1,3.698299885E0,1.332800007E1,1.366599941E1
1.896997969E1,3.851799965E0,9.535299301E0,1.057810020E1
1.897999063E1,2.827299833E0,6.714900017E0,6.595399857E0
1.899000156E1,1.911799908E0,5.404699802E0,2.620299816E0
1.899998125E1,1.860700011E0,5.034399986E0,-1.692499995E0
1.900999219E1,1.830599904E0,4.157400131E0,-1.454399943E0
1.901997188E1,2.056499958E0,3.828799963E0,-6.063899994E0
1.902998281E1,2.286399841E0,3.694399834E0,-1.057329941E1
1.903999375E1,2.675199986E0,3.137699842E0,-1.361149979E1
1.904997500E1,3.040499926E0,2.105299950E0,-1.452369976E1
1.905998594E1,2.856799841E0,8.870999813E-1,-1.371749973E1
1.906999688E1,2.256500006E0,-5.471999645E-1,-1.238280010E1
1.907997656E1,1.173399925E0,-2.013999939E0,-1.115040016E1
1.908998750E1,-1.542999893E-1,-3.176699877E0,-1.013439941E1
1.909999844E1,-1.567199945E0,-4.014999866E0,-9.485300064E0
1.910997812E1,-2.742300034E0,-4.596899986E0,-9.257100105E0
1.911998906E1,-3.740999937E0,-4.897999763E0,-9.214499474E0
1.913000000E1,-4.526899815E0,-5.124799728E0,-9.450699806E0
1.913997969E1,-5.005499840E0,-5.108799934E0,-9.879599571E0
1.914999219E1,-5.051599979E0,-5.095999718E0,-9.704599380E0
1.916000313E1,-4.887399673E0,-5.178800106E0,-9.458099365E0
1.916998125E1,-4.965799809E0,-4.804999828E0,-9.070699692E0
1.917999375E1,-4.656699657E0,-4.427700043E0,-8.376699448E0
1.918997344E1,-4.055500031E0,-4.143199921E0,-7.911199570E0
1.919998438E1,-3.715899944E0,-3.666100025E0,-6.587999821E0
1.920999531E1,-3.664599895E0,-3.103799820E0,-4.078099728E0
1.921997500E1,-3.155400038E0,-2.267699957E0,-3.966999948E-1
1.922998594E1,-2.404399872E0,-1.370700002E0,4.043799877E0
1.923999688E1,-2.075299978E0,-2.814999819E-1,8.363299370E0
1.924997656E1,-2.938899994E0,8.156999946E-1,1.251819992E1
1.925998906E1,-4.305099964E0,1.484699965E0,1.903419876E1
1.927000000E1,-6.382499695E0,2.055700064E0,2.492519951E1
1.927997812E1,-7.182499886E0,4.096300125E0,2.742809868E1
1.928999062E1,-5.929699898E0,6.940299988E0,2.639659882E1
1.930000156E1,-2.496500015E0,9.021900177E0,2.360829926E1
1.930998125E1,2.333600044E0,9.713500023E0,2.093560028E1
1.931999219E1,6.925999641E0,9.043799400E0,1.929030037E1
1.932997188E1,1.047410011E1,7.133599758E0,1.776799965E1
1.933998281E1,1.132929993E1,4.804599762E0,1.534809971E1
1.934999375E1,9.265600204E0,2.591599941E0,1.270529938E1
1.935997500E1,5.081899643E0,8.537999988E-1,9.859099388E0
1.936998438E1,1.034699917E0,-5.196999907E-1,6.875099659E0
1.937999688E1,-2.006999969E0,-1.558200002E0,3.980399847E0
1.938997656E1,-3.722100019E0,-2.018699884E0,1.210299969E0
1.939998750E1,-4.250199795E0,-2.531100035E0,-1.706999898E0
1.940999844E1,-3.615399837E0,-3.282299995E0,-4.149300098E0
1.941997812E1,-2.501600027E0,-4.370199680E0,-5.972099781E0
1.942999063E1,-1.367599964E0,-5.785799980E0,-7.298199654E0
1.944000000E1,-6.234999895E-1,-7.666299820E0,-8.217399597E0
1.944997969E1,1.567000002E-1,-9.602600098E0,-8.343199730E0
1.945999219E1,1.418099999E0,-1.100859928E1,-7.824100018E0
1.947000312E1,2.843899965E0,-1.197299957E1,-6.962100029E0
1.947998281E1,4.390500069E0,-1.251849937E1,-6.603699684E0
1.948999375E1,5.921999931E0,-1.227359962E1,-7.598899841E0
1.949997344E1,6.778399944E0,-1.152040005E1,-9.743299484E0
1.950998438E1,7.035399914E0,-1.044239998E1,-1.246859932E1
1.951999531E1,6.802499771E0,-9.411199570E0,-1.484899998E1
1.952997500E1,5.807799816E0,-8.184199333E0,-1.649919891E1
1.953998594E1,4.056499958E0,-6.842099667E0,-1.678310013E1
1.954999844E1,1.849099994E0,-5.533899784E0,-1.585499954E1
1.955997656E1,-1.270000041E-1,-4.152400017E0,-1.369329929E1
1.956998906E1,-1.621399999E0,-2.645999908E0,-1.069479942E1
1.958000000E1,-2.708999872E0,-8.213999867E-1,-7.438699722E0
1.958997969E1,-3.142499924E0,9.003999829E-1,-3.799899817E0
1.959999062E1,-3.028999805E0,1.701699972E0,2.168999910E-1
1.961000156E1,-3.738399982E0,2.677500010E0,5.083099842E0
1.961998125E1,-6.330299854E0,5.019599915E0,1.252419949E1
1.962999219E1,-9.753399849E0,7.753599644E0,2.198259926E1
1.963997188E1,-9.362400055E0,1.104669952E1,2.884189987E1
1.964998281E1,-4.236400127E0,1.402539921E1,2.796059990E1
1.965999531E1,1.732299924E0,1.633090019E1,2.141629982E1
1.966997500E1,6.956199646E0,1.877840042E1,1.563109970E1
1.967998594E1,9.696899414E0,1.909650040E1,1.477989960E1
1.968999688E1,9.703100204E0,1.658289909E1,1.699880028E1
1.969997656E1,7.271399975E0,1.303619957E1,1.882040024E1
1.970998750E1,4.576299667E0,9.761899948E0,1.789349937E1
1.971999844E1,2.590600014E0,7.162399769E0,1.403639984E1
1.972997813E1,1.054499984E0,5.370899677E0,8.106800079E0
1.973998906E1,-2.786999941E-1,4.206099987E0,2.354699850E0
1.975000000E1,-1.511999965E0,3.537799835E0,-2.721299887E0
1.975997969E1,-2.820699930E0,3.056999922E0,-6.350399971E0
1.976999219E1,-3.580699921E0,2.648900032E0,-8.413999557E0
1.978000312E1,-3.775899887E0,1.979699969E0,-9.182299614E0
1.978998281E1,-3.442699909E0,1.245899916E0,-9.193699837E0
1.979999375E1,-2.881500006E0,5.120999813E-1,-8.990099907E0
1.980997344E1,-2.257599831E0,2.749999985E-2,-9.076000214E0
1.981998438E1,-1.262799978E0,-3.396999836E-1,-9.174099922E0
1.982999531E1,-9.459999949E-2,-5.906000137E-1,-9.207799911E0
1.983997500E1,7.500999570E-1,-7.728999853E-1,-9.296299934E0
1.984998594E1,9.757999778E-1,-9.144999981E-1,-9.824199677E0
1.985999688E1,6.800999641E-1,-1.053399920E0,-1.019289970E1
1.986997813E1,-3.542999923E-1,-1.032400012E0,-1.017809963E1
1.987998906E1,-1.791299939E0,-9.575999975E-1,-9.762000084E0
1.989000000E1,-3.431900024E0,-8.234999776E-1,-9.137000084E0
1.989997969E1,-4.818900108E0,-4.717999995E-1,-8.668499947E0
1.990999063E1,-5.756999969E0,-1.303000003E-1,-8.284099579E0
1.992000156E1,-6.289599895E0,2.078000009E-1,-7.421099663E0
1.992998125E1,-6.531799793E0,3.671000004E-1,-5.761600018E0
1.993999219E1,-6.073599815E0,9.129999578E-2,-3.719099998E0
1.994997188E1,-5.308899879E0,-4.075999856E-1,-1.787699938E0
1.995998281E1,-4.486599922E0,-5.807999969E-1,8.810000122E-2
1.996999375E1,-3.374499798E0,-3.343999982E-1,2.414199829E0
1.997997500E1,-2.479500055E0,4.930999875E-1,4.782099724E0
1.998998438E1,-2.297799826E0,2.543599844E0,6.949499607E0
1.999999688E1,-3.226500034E0,5.712299824E0,8.973199844E0
2.000997656E1,-4.505099773E0,1.026340008E1,1.189649963E1
2.001998750E1,-4.698800087E0,1.468589973E1,1.756139946E1
2.002999844E1,-9.226999879E-1,1.492849922E1,2.585429955E1
2.003997812E1,5.343999863E0,1.221789932E1,3.179500008E1
2.004998906E1,1.274419975E1,7.909099579E0,3.336650085E1
2.006000156E1,1.951389885E1,4.545599937E0,3.175389862E1
2.006998125E1,2.357749939E1,2.444700003E0,2.859819984E1
2.007999219E1,2.328339958E1,9.049999714E-1,2.409589958E1
2.009000313E1,1.895649910E1,-3.745999932E-1,1.800659943E1
2.009998281E1,1.224389935E1,-1.468699932E0,1.142229939E1
2.010999375E1,1.207100010E1,-1.294199944E0,5.689899921E0
2.011997344E1,5.321300030E0,-2.143100023E0,5.770499706E0
2.012998438E1,8.779999614E-2,-3.223399878E0,1.585600019E0
2.013999531E1,-3.313499928E0,-4.352799892E0,-1.263399959E0
2.014997500E1,-5.104300022E0,-6.085499763E0,-2.870199919E0
2.015998594E1,-5.576600075E0,-8.395599365E0,-3.322499990E0
2.016999688E1,-5.021699905E0,-1.087959957E1,-2.970599890E0
2.017997812E1,-3.808300018E0,-1.299909973E1,-2.974499941E0
2.018998906E1,-1.715099931E0,-1.473149967E1,-4.375199795E0
2.020000000E1,1.353099942E0,-1.585019970E1,-7.078299999E0
2.020997969E1,4.139699936E0,-1.623690033E1,-1.029150009E1
2.021999062E1,5.918200016E0,-1.581839943E1,-1.310729980E1
2.023000156E1,6.314699650E0,-1.494119930E1,-1.521119976E1
2.023998125E1,5.879099846E0,-1.376749992E1,-1.620800018E1
2.024999219E1,4.296899796E0,-1.275889969E1,-1.643899918E1
2.025997344E1,2.116099834E0,-1.147419930E1,-1.626420021E1
2.026998281E1,-3.394999802E-1,-9.895899773E0,-1.554829979E1
2.027999531E1,-2.890399933E0,-8.024000168E0,-1.394679928E1
2.028997500E1,-4.833699703E0,-6.016499996E0,-1.166189957E1
2.029998594E1,-5.811299801E0,-4.241499901E0,-9.356699944E0
2.030999688E1,-5.847099781E0,-2.630199909E0,-6.474599838E0
2.031997656E1,-4.832299709E0,-1.481199980E0,-2.907099962E0
2.032998750E1,-3.463500023E0,-6.146999598E-1,1.095799923E0
2.033999844E1,-2.721299887E0,9.795999527E-1,5.663899899E0
2.034997812E1,-3.128299952E0,4.044099808E0,1.162419987E1
2.035998906E1,-3.186800003E0,8.210800171E0,1.859239960E1
2.037000156E1,-3.431499958E0,1.367350006E1,2.643759918E1
2.037998125E1,-1.482999921E0,1.717079926E1,3.337469864E1
2.038999219E1,2.293799877E0,1.868499947E1,3.805949783E1
2.039997188E1,6.627999783E0,1.843770027E1,4.012559891E1
2.040998281E1,1.137449932E1,1.718799973E1,3.980170059E1
2.041999375E1,1.469969940E1,1.576340008E1,3.648410034E1
2.042997656E1,1.531919956E1,1.439579964E1,3.039979935E1
2.043998438E1,1.347149944E1,1.297789955E1,2.230150032E1
2.044999688E1,9.863599777E0,1.128129959E1,1.391669941E1
2.045997500E1,5.671899796E0,9.360499382E0,6.351999760E0
2.046998594E1,1.658299923E0,7.322899818E0,7.469999790E-2
2.047999844E1,-1.588999987E0,5.468400002E0,-5.178299904E0
2.048997812E1,-3.674099922E0,3.633999825E0,-9.200599670E0
2.049998906E1,-4.596600056E0,1.808399916E0,-1.186380005E1
2.051000000E1,-4.923299789E0,3.005000055E-1,-1.336389923E1
2.051997969E1,-5.016200066E0,-1.085199952E0,-1.405769920E1
2.052999062E1,-5.504399776E0,-1.968099952E0,-1.485119915E1
2.054000156E1,-6.256799698E0,-2.669499874E0,-1.559419918E1
2.054998125E1,-7.093599796E0,-2.894899845E0,-1.605669975E1
2.055999375E1,-8.266699791E0,-2.704900026E0,-1.643669891E1
2.056997344E1,-9.366299629E0,-2.281800032E0,-1.661249924E1
2.057998281E1,-1.023439980E1,-1.797199965E0,-1.669229889E1
2.058999531E1,-1.096640015E1,-1.201300025E0,-1.639319992E1
2.059997500E1,-1.132779980E1,-5.906999707E-1,-1.559029961E1
2.060998594E1,-1.147739983E1,-1.929999888E-1,-1.412679958E1
2.061999688E1,-1.146000004E1,3.091000021E-1,-1.204039955E1
2.062997656E1,-1.111059952E1,5.259000063E-1,-9.888899803E0
2.063998750E1,-1.014009953E1,7.870000005E-1,-8.027599335E0
2.064999844E1,-8.145500183E0,9.134999514E-1,-6.275799751E0
2.065997813E1,-5.035799980E0,1.057799935E0,-4.108099937E0
