"Time (s)","Linear Acceleration x (m/s^2)","Linear Acceleration y (m/s^2)","Linear Acceleration z (m/s^2)"
1.300156300E-2,6.783999801E-1,1.011199951E0,-1.387699962E0
2.298125000E-2,6.769999862E-1,7.935000062E-1,-1.447299957E0
3.299218800E-2,8.345999718E-1,5.803999901E-1,-1.433200002E0
4.300312500E-2,6.520999670E-1,5.697000027E-1,-1.078199983E0
5.298437500E-2,3.331999779E-1,7.653999925E-1,-6.274999976E-1
6.299375000E-2,-1.099999994E-3,8.479999900E-1,-1.146999970E-1
7.300625000E-2,-1.136000007E-1,1.397699952E0,2.750999928E-1
8.298593800E-2,1.277000010E-1,1.438199997E0,5.073999763E-1
9.299687500E-2,8.280000091E-2,1.009699941E0,2.329999954E-1
1.030078130E-1,1.342999935E-1,5.952000022E-1,1.435000002E-1
1.129875000E-1,-5.119999871E-2,3.041999936E-1,-7.129999995E-2
1.229984380E-1,-3.086999953E-1,7.099999487E-2,3.559999913E-2
1.330093750E-1,-7.507999539E-1,-3.229999915E-2,1.196999997E-1
1.429890630E-1,-8.499000072E-1,1.379999984E-2,6.239999831E-2
1.530000000E-1,-1.100799918E0,-4.609999806E-2,-7.289999723E-2
1.630125000E-1,-1.029699922E0,2.510000020E-2,2.369999886E-2
1.729921880E-1,-7.265999913E-1,-6.439999491E-2,2.467999905E-1
1.830031250E-1,-2.458999902E-1,-2.987000048E-1,3.028999865E-1
1.929843750E-1,1.467999965E-1,-5.570999980E-1,6.532999873E-1
2.029937500E-1,2.320999950E-1,-4.501999915E-1,5.108000040E-1
2.130046880E-1,3.143000007E-1,-3.674999774E-1,2.669999897E-1
2.229843750E-1,3.382000029E-1,-9.209999442E-2,-3.553999960E-1
2.329953130E-1,3.883000016E-1,-5.189999938E-2,-4.627999961E-1
2.430078130E-1,4.666000009E-1,-7.609999925E-2,7.869999856E-2
2.529859380E-1,5.306999683E-1,-9.659999609E-2,4.640999734E-1
2.629984380E-1,3.534999788E-1,1.597999930E-1,4.615999758E-1
2.730093750E-1,3.352999985E-1,-1.709999889E-2,1.479000002E-1
2.829906250E-1,3.648999929E-1,1.122999936E-1,-1.181999967E-1
2.930000000E-1,1.982000023E-1,1.944999993E-1,-2.929999828E-1
3.030109380E-1,5.979999900E-2,7.629999518E-2,-4.958999753E-1
3.129906250E-1,6.350000203E-2,7.639999688E-2,-2.228999883E-1
3.230015630E-1,1.869999990E-2,8.219999820E-2,-3.350000083E-2
3.329828130E-1,5.709999800E-2,4.800000042E-2,7.679999620E-2
3.429921880E-1,-2.073999941E-1,4.849999771E-2,-1.239999980E-1
3.530046880E-1,-1.920999885E-1,4.769999906E-2,-1.129999943E-2
3.629828130E-1,-3.693999946E-1,8.689999580E-2,2.049999870E-2
3.729937500E-1,-3.585999906E-1,1.643999964E-1,2.138999999E-1
3.830062500E-1,-6.291999817E-1,8.789999783E-2,4.445999861E-1
3.929859380E-1,-5.167999864E-1,5.389999971E-2,4.386000037E-1
4.029968750E-1,-4.573999941E-1,-5.419999734E-2,3.139999807E-1
4.130078130E-1,-5.514999628E-1,6.790000200E-2,1.171999946E-1
4.229875000E-1,-4.052999914E-1,2.224999964E-1,8.569999784E-2
4.330000000E-1,-3.209999800E-1,1.781999916E-1,2.087999880E-1
4.430093750E-1,-2.248999923E-1,1.611000001E-1,1.494999975E-1
4.529890630E-1,-5.260000005E-2,2.651000023E-1,1.645999998E-1
4.630000000E-1,-7.109999657E-2,2.577999830E-1,2.854000032E-1
4.730109380E-1,-2.377999872E-1,1.458999962E-1,1.867000014E-1
4.829921880E-1,-2.430999875E-1,1.527999938E-1,1.239999980E-1
4.930031250E-1,-1.700000018E-1,1.077999994E-1,-3.659999743E-2
5.029828130E-1,-5.769999698E-2,1.692999899E-1,-1.798999906E-1
5.129937500E-1,4.129999876E-2,3.830000013E-2,-2.843999863E-1
5.230046880E-1,-1.269999985E-2,2.630000003E-2,-3.137999773E-1
5.329843750E-1,-2.630000003E-2,1.699999906E-2,-4.651999772E-1
5.429953130E-1,-1.578999907E-1,9.179999679E-2,-3.115999997E-1
5.530078130E-1,-5.969999731E-2,2.133999914E-1,-1.059999969E-2
5.629875000E-1,-7.739999890E-2,2.937999964E-1,2.142999917E-1
5.729984380E-1,-1.718000025E-1,1.017000005E-1,3.964000046E-1
5.830093750E-1,-3.409999982E-2,1.410999894E-1,3.111999929E-1
5.929890630E-1,-2.439999953E-2,1.061000004E-1,2.230999917E-1
6.030000000E-1,1.353999972E-1,2.212999910E-1,-9.300000034E-3
6.130109380E-1,9.339999408E-2,3.357000053E-1,-3.399999812E-3
6.229906250E-1,-2.229999937E-2,3.727999926E-1,2.736999989E-1
6.330031250E-1,-7.079999894E-2,9.519999474E-2,2.421999872E-1
6.429812500E-1,-3.700000048E-2,2.447999865E-1,1.767999977E-1
6.529921880E-1,2.999999851E-4,3.181000054E-1,3.423999846E-1
6.630046880E-1,-1.545999944E-1,4.334999919E-1,3.452000022E-1
6.729843750E-1,-1.851999909E-1,4.702000022E-1,2.678000033E-1
6.829953130E-1,-1.357000023E-1,5.805000067E-1,2.366999984E-1
6.930062500E-1,-3.492999971E-1,4.939000010E-1,1.639000028E-1
7.029859380E-1,-5.090000033E-1,6.076999903E-1,5.113999844E-1
7.129968750E-1,-6.618999839E-1,7.213999629E-1,7.394999862E-1
7.230078130E-1,-5.880999565E-1,5.275999904E-1,8.822999597E-1
7.329875000E-1,-4.438999891E-1,2.942999899E-1,5.965999961E-1
7.429984380E-1,-3.413999975E-1,1.017000005E-1,3.879999816E-1
7.530093750E-1,-2.777000070E-1,-1.235999987E-1,3.656999767E-1
7.629906250E-1,-2.875999808E-1,-3.051999807E-1,4.529999793E-1
7.730015630E-1,-4.493999779E-1,-3.258000016E-1,6.112999916E-1
7.830125000E-1,-2.646999955E-1,-3.010999858E-1,6.847000122E-1
7.929921880E-1,-5.449000001E-1,-2.365999967E-1,8.345999718E-1
8.030031250E-1,-5.108000040E-1,-3.342999816E-1,6.398999691E-1
8.129828130E-1,-4.043000042E-1,-4.342999756E-1,5.288999677E-1
8.229937500E-1,-2.676999867E-1,-3.488999903E-1,2.397999913E-1
8.330062500E-1,-1.314000040E-1,-3.427999914E-1,6.979999691E-2
8.429843750E-1,-7.400000095E-2,-2.194999903E-1,5.749999732E-2
8.529953130E-1,2.520000003E-2,-3.243999779E-1,3.449999914E-2
8.630062500E-1,-3.209999949E-2,-5.422999859E-1,5.099999718E-3
8.729875000E-1,5.859999731E-2,-5.311999917E-1,-1.700999886E-1
8.829984380E-1,7.079999894E-2,-5.593000054E-1,-7.069999725E-2
8.930093750E-1,9.099999443E-3,-5.055999756E-1,-5.529999733E-2
9.029890630E-1,-1.069999952E-2,-4.922999740E-1,-3.849999979E-2
9.130015630E-1,3.786000013E-1,-5.151999593E-1,-1.388999969E-1
9.230109380E-1,6.371999979E-1,-6.516999602E-1,-2.422999889E-1
9.329906250E-1,4.707999825E-1,-5.214999914E-1,-6.890999675E-1
9.430031250E-1,4.520999789E-1,-2.836999893E-1,-1.120000005E0
9.529828130E-1,1.594000012E-1,-2.545999885E-1,-1.455299973E0
9.629921880E-1,1.950000040E-2,-2.263999879E-1,-1.317699909E0
9.730046880E-1,-3.999999899E-4,-8.899999410E-2,-1.286399961E0
9.829843750E-1,-5.029999837E-2,5.099999905E-2,-1.064399958E0
9.929953130E-1,-1.829999872E-2,1.500999928E-1,-1.075899959E0
1.003006250E0,5.379999802E-2,1.009999961E-1,-4.720999897E-1
1.012985938E0,-2.779999934E-2,-1.718999892E-1,1.929999888E-1
1.022996875E0,-2.642999887E-1,-2.815999985E-1,6.527999640E-1
1.033007813E0,-5.205000043E-1,-3.999999899E-4,9.923999906E-1
1.042987500E0,-5.511999726E-1,2.056999952E-1,1.407799959E0
1.053000000E0,-4.302999973E-1,-9.309999645E-2,1.307799935E0
1.063009375E0,-5.001999736E-1,-2.775999904E-1,1.015200019E0
1.072989063E0,-3.740999997E-1,-1.503999978E-1,6.471999884E-1
1.083001563E0,-2.843999863E-1,1.673000008E-1,4.430999756E-1
1.093012500E0,2.879999951E-2,2.863999903E-1,2.450999916E-1
1.102990625E0,1.445000023E-1,3.589999974E-1,1.819999889E-2
1.113003125E0,2.153999954E-1,5.742999911E-1,-3.836999834E-1
1.122982813E0,9.809999913E-2,5.163999796E-1,-4.361999929E-1
1.132993750E0,2.126999944E-1,7.306999564E-1,-2.489999980E-1
1.143004688E0,5.837000012E-1,5.277000070E-1,2.751999795E-1
1.152985938E0,8.233000040E-1,-2.775000036E-1,9.631999731E-1
1.162995313E0,4.276999831E-1,-6.372999549E-1,1.506899953E0
1.173006250E0,5.504999757E-1,-7.112999558E-1,2.033900023E0
1.182987500E0,5.141000152E-1,-4.605000019E-1,2.155200005E0
1.192998438E0,4.043999910E-1,-3.181999922E-1,2.029599905E0
1.203009375E0,2.140999883E-1,-2.180000022E-2,1.595999956E0
1.212989063E0,-1.633999944E-1,1.428000033E-1,1.023100019E0
1.223000000E0,-3.386999965E-1,3.014999926E-1,6.536999941E-1
1.233010938E0,-3.976999819E-1,1.428999901E-1,3.287000060E-1
1.242990625E0,-1.529999971E-1,-1.322000027E-1,-1.124999970E-1
1.253003125E0,-1.425999999E-1,-3.229999915E-2,-3.756999969E-1
1.262982813E0,-3.227999806E-1,1.744000018E-1,1.181999967E-1
1.272993750E0,-6.166999936E-1,1.865999997E-1,7.667999864E-1
1.283004688E0,-5.703999996E-1,3.549999893E-1,9.086999893E-1
1.292984375E0,-1.895999908E-1,2.852999866E-1,8.611999750E-1
1.302995313E0,-4.609999806E-2,1.660999954E-1,3.947999775E-1
1.313006250E0,1.359999925E-2,1.239999980E-1,1.664000005E-1
1.322985938E0,3.720000014E-2,5.079999939E-2,8.469999582E-2
1.332998438E0,-5.130000040E-2,6.499999762E-2,1.092000008E-1
1.343007813E0,-8.599999547E-2,2.035999894E-1,3.190000057E-1
1.352987500E0,-3.900000080E-2,1.535999924E-1,3.233999908E-1
1.363000000E0,-1.033999994E-1,1.551999897E-1,2.736999989E-1
1.373010938E0,-9.319999814E-2,2.744999826E-1,2.250999957E-1
1.382990625E0,-1.552999914E-1,2.018999904E-1,2.498999983E-1
1.393003125E0,-4.999999702E-2,7.999999821E-2,2.456000000E-1
1.403012500E0,6.309999526E-2,4.749999940E-2,1.929000020E-1
1.412992188E0,1.573999971E-1,1.460999995E-1,-1.808999926E-1
1.423003125E0,1.376999915E-1,-6.599999964E-3,-3.804999888E-1
1.432982813E0,2.296999991E-1,-4.549999908E-2,-5.350999832E-1
1.442993750E0,2.755999863E-1,-8.810000122E-2,-8.015999794E-1
1.453006250E0,1.627999991E-1,1.877999902E-1,-7.979999781E-1
1.462984375E0,7.889999449E-2,2.056999952E-1,-5.368999839E-1
1.472996875E0,1.048000008E-1,1.990999877E-1,-2.131999880E-1
1.483007813E0,2.784999907E-1,8.700000122E-3,9.769999981E-2
1.492987500E0,4.183000028E-1,-1.709999889E-1,3.561999798E-1
1.502998438E0,2.513000071E-1,-1.469999999E-1,4.478999972E-1
1.513010938E0,1.186999977E-1,2.419999987E-2,3.946999907E-1
1.522989063E0,-1.740999967E-1,1.400000006E-1,3.215999901E-1
1.533000000E0,-1.541000009E-1,2.134999931E-1,2.524999976E-1
1.543010938E0,-8.309999853E-2,2.399999946E-1,-6.000000052E-3
1.552990625E0,2.939999849E-2,7.699999958E-2,-1.548999995E-1
1.563003125E0,1.781999916E-1,-8.060000092E-2,-2.308999896E-1
1.572982813E0,2.102999985E-1,1.099999994E-1,-3.015999794E-1
1.582993750E0,2.757000029E-1,3.099999949E-2,-1.023999974E-1
1.593003125E0,4.111000001E-1,-4.380000010E-2,1.327999979E-1
1.602984375E0,4.290999770E-1,-7.930000126E-2,2.110999972E-1
1.612995313E0,4.045999944E-1,-1.799999969E-3,6.030000001E-2
1.623006250E0,4.176999927E-1,1.876000017E-1,-1.226999983E-1
1.632987500E0,2.370999902E-1,9.779999405E-2,-2.220999897E-1
1.642996875E0,1.032999977E-1,3.599999938E-3,-2.786000073E-1
1.653009375E0,1.650999933E-1,-2.424999923E-1,-2.228999883E-1
1.662989063E0,1.162000000E-1,-1.603000015E-1,1.277000010E-1
1.673000000E0,-1.185999960E-1,-2.250999957E-1,4.644999802E-1
1.683010938E0,-1.503999978E-1,-8.559999615E-2,7.902999520E-1
1.692989063E0,-2.679999918E-2,-2.434999943E-1,1.097499967E0
1.703001563E0,-1.772999913E-1,-2.360999882E-1,1.121199965E0
1.713012500E0,-1.376999915E-1,-2.335999906E-1,9.562999606E-1
1.722992188E0,-1.004999951E-1,-3.556999862E-1,7.215999961E-1
1.733003125E0,-5.839999765E-2,-4.101999998E-1,5.769000053E-1
1.742982813E0,3.283999860E-1,-3.134000003E-1,7.538999915E-1
1.752995313E0,4.305999875E-1,-2.538000047E-1,9.309999943E-1
1.763006250E0,4.077000022E-1,-3.923999965E-1,4.450999796E-1
1.772985938E0,3.718999922E-1,-3.418999910E-1,-1.476999968E-1
1.782996875E0,4.835999906E-1,-3.874999881E-1,-1.268299937E0
1.793007813E0,3.628999889E-1,-2.918999791E-1,-2.215199947E0
1.802985938E0,2.504999936E-1,-4.296000004E-1,-2.145900011E0
1.812998438E0,-7.559999824E-2,-3.671999872E-1,-1.654500008E0
1.823009375E0,-3.491999805E-1,-1.840000004E-1,-1.483399987E0
1.832989063E0,-6.816999912E-1,4.105999768E-1,-1.490799904E0
1.843000000E0,-1.105899930E0,6.381999850E-1,-1.448499918E0
1.853010938E0,-1.169999957E0,7.415999770E-1,-1.438699961E0
1.862990625E0,-8.908999562E-1,6.886000037E-1,-1.661299944E0
1.873003125E0,-3.946999907E-1,6.764999628E-1,-1.959199905E0
1.882982813E0,-1.502999961E-1,5.076999664E-1,-2.134999990E0
1.892993750E0,-8.593999743E-1,5.704999566E-1,-2.036700010E0
1.903004688E0,-4.386000037E-1,7.234999537E-1,-1.086899996E0
1.912984375E0,6.427999735E-1,1.221599936E0,-9.404000044E-1
1.922995313E0,1.557799935E0,1.401899934E0,-7.761999965E-1
1.933006250E0,1.866400003E0,1.310599923E0,-4.910999835E-1
1.942985938E0,1.749599934E0,1.134500027E0,-3.529999852E-1
1.952996875E0,1.476699948E0,8.429999948E-1,-2.933000028E-1
1.963007813E0,1.212499976E0,5.539000034E-1,-3.540000021E-1
1.972989063E0,1.373899937E0,4.283999801E-1,-1.841000021E-1
1.982998438E0,1.831599951E0,2.408999950E-1,3.622999787E-1
1.993010938E0,2.055299997E0,-2.259999886E-2,4.760999978E-1
2.002990625E0,2.007799864E0,1.010999978E-1,5.205000043E-1
2.013001563E0,1.359099984E0,2.953999937E-1,1.380999982E-1
2.022981250E0,8.094999790E-1,2.926000059E-1,-2.879999876E-1
2.032992188E0,5.551999807E-1,4.553000033E-1,-5.784999728E-1
2.043003125E0,7.620999813E-1,4.750999808E-1,-9.261999726E-1
2.052982813E0,7.300999761E-1,4.481999874E-1,-1.258999944E0
2.062993750E0,4.174000025E-1,2.935999930E-1,-1.531399965E0
2.073004688E0,2.589999884E-2,1.761000007E-1,-1.640999913E0
2.082985938E0,-1.818999946E-1,-6.599999964E-3,-1.491099954E0
2.092996875E0,-3.256999850E-1,1.979999989E-2,-1.002900004E0
2.103007813E0,-3.549000025E-1,2.359999903E-2,-1.887999922E-1
2.112987500E0,-5.672000051E-1,-9.420000017E-2,-5.891999602E-1
2.122998438E0,-7.175999880E-1,-9.459999949E-2,-6.484000087E-1
2.133009375E0,-1.233699918E0,-2.972999811E-1,-9.071999788E-1
2.142989063E0,-1.762799978E0,-4.240999818E-1,-1.310599923E0
2.153001563E0,-2.076799870E0,-4.922999740E-1,-1.412599921E0
2.163012500E0,-2.227200031E0,-4.427999854E-1,-8.739999533E-1
2.172992188E0,-1.720299959E0,-6.309999526E-2,6.759999990E-1
2.183003125E0,-1.173099995E0,4.739999771E-2,1.235700011E0
2.192982813E0,-1.211300015E0,-1.172999963E-1,1.169399977E0
2.202993750E0,-1.628600001E0,5.240000039E-2,3.876000047E-1
2.213004688E0,-1.508099914E0,-1.821999997E-1,-6.372999549E-1
2.222984375E0,-1.305499911E0,-1.574999988E-1,-1.318499923E0
2.232995313E0,-9.346999526E-1,2.199999988E-3,-1.800499916E0
2.243007813E0,-7.447999716E-1,2.730000019E-1,-1.719599962E0
2.252985938E0,-8.578999639E-1,7.469999790E-2,-1.716899991E0
2.262998438E0,-1.281700015E0,2.096999884E-1,-1.005399942E0
2.273009375E0,-1.135599971E0,1.722999960E-1,-2.563000023E-1
2.282989063E0,-1.150399923E0,1.092000008E-1,7.400000095E-2
2.293000000E0,-1.113999963E0,-2.982999980E-1,7.000000030E-2
2.303010938E0,-1.149099946E0,-4.275999963E-1,-1.764999926E-1
2.312990625E0,-9.648000002E-1,-1.019699931E0,-4.332000017E-1
2.323001563E0,-1.060299993E0,-9.827999473E-1,-6.105999947E-1
2.332981250E0,-1.377499938E0,-7.894999981E-1,-4.336999953E-1
2.342992188E0,-1.454999924E0,-1.026099920E0,-1.009999961E-1
2.353004688E0,-1.561599970E0,-1.511999965E0,-4.406999946E-1
2.362982813E0,-1.663399935E0,-1.686800003E0,-1.123299956E0
2.372993750E0,-1.871299982E0,-1.864899993E0,-1.519899964E0
2.383006250E0,-1.558799982E0,-2.234400034E0,-1.684899926E0
2.392985938E0,-1.388000011E0,-2.651399851E0,-4.275999963E-1
2.402996875E0,4.533999860E-1,-2.518699884E0,-6.189999580E-1
2.413007813E0,8.916999698E-1,-3.087399960E0,-1.923999935E-1
2.422987500E0,1.138999939E0,-4.257199764E0,-1.287999898E-1
2.432998438E0,8.700999618E-1,-4.991099834E0,3.158999979E-1
2.443009375E0,2.728999853E-1,-5.155499935E0,1.303799987E0
2.452989063E0,-5.539999902E-2,-4.997499943E0,2.741400003E0
2.463001563E0,3.080999851E-1,-4.597599983E0,3.666100025E0
2.473012500E0,1.258000016E0,-3.921599865E0,4.338900089E0
2.482990625E0,1.763499975E0,-3.596499920E0,4.694099903E0
2.493003125E0,2.695799828E0,-3.090999842E0,6.323299885E0
2.502982813E0,3.275099993E0,-2.558500051E0,8.185199738E0
2.512993750E0,2.904999971E0,-2.016399860E0,8.323200226E0
2.523004688E0,1.504199982E0,-1.914599895E0,7.920899868E0
2.532984375E0,6.886999607E-1,-9.890999794E-1,8.531299591E0
2.542995313E0,7.373999953E-1,5.403000116E-1,9.191999435E0
2.553006250E0,1.084399939E0,2.224999905E0,9.125599861E0
2.562985938E0,1.276099920E0,3.806299925E0,8.691999435E0
2.572996875E0,1.721099973E0,5.290599823E0,7.683699608E0
2.583009375E0,1.871599913E0,6.482999802E0,6.290899754E0
2.592989063E0,1.746399999E0,7.342299938E0,4.863399982E0
2.603000000E0,1.280300021E0,7.668200016E0,4.275700092E0
2.613010938E0,9.038999677E-1,7.844799995E0,4.583899975E0
2.622990625E0,4.196999967E-1,7.453499794E0,5.269299984E0
2.633003125E0,7.360000163E-2,7.106799603E0,5.673899651E0
2.642981250E0,-5.690000057E-1,6.350699902E0,5.460499763E0
2.652992188E0,-9.185999632E-1,5.558099747E0,4.530900002E0
2.663004688E0,-1.480199933E0,5.209599972E0,3.459499836E0
2.672984375E0,-2.367199898E0,4.675099850E0,2.287199974E0
2.682993750E0,-3.129299879E0,4.339999676E0,3.946999907E-1
2.693006250E0,-3.819999933E0,3.419499874E0,-2.646499872E0
2.702985938E0,-3.743599892E0,3.231499910E0,-5.645499706E0
2.712996875E0,-2.592299938E0,3.276199818E0,-7.938499928E0
2.723007813E0,-1.790599942E0,2.369299889E0,-9.078399658E0
2.732987500E0,-1.069399953E0,1.125800014E0,-8.222599983E0
2.742998438E0,-2.992999852E-1,5.260000005E-2,-6.116099834E0
2.753009375E0,-6.049999967E-2,-7.325999737E-1,-3.348599911E0
2.762990625E0,-2.857999802E-1,-1.139099956E0,-1.148499966E0
2.773001563E0,-1.552999914E-1,-1.288599968E0,6.838999987E-1
2.783012500E0,1.033999994E-1,-1.620999932E0,1.879899979E0
2.792992188E0,5.855000019E-1,-2.478399992E0,2.700700045E0
2.803003125E0,6.456999779E-1,-2.643899918E0,7.922999859E-1
2.812982813E0,9.023999572E-1,-2.531800032E0,-1.860000007E-2
2.822993750E0,-3.860999942E-1,-3.104300022E0,-8.528999686E-1
2.833006250E0,-1.650200009E0,-3.288100004E0,-9.408999681E-1
2.842984375E0,-6.973999739E-1,-2.721099854E0,-5.689999834E-2
2.852995313E0,7.480999827E-1,-2.622699976E0,1.212499976E0
2.863006250E0,1.304600000E0,-2.860499859E0,1.640699983E0
2.872987500E0,1.413200021E0,-3.103199959E0,1.800999999E0
2.882996875E0,1.281299949E0,-2.642400026E0,2.475199938E0
2.893009375E0,-7.580000162E-2,-1.561900020E0,5.042900085E0
2.902989063E0,-1.509999931E-1,-1.403299928E0,5.514999866E0
2.913000000E0,9.875999689E-1,-1.098999977E0,5.959699631E0
2.923010938E0,1.314899921E0,3.109999932E-2,6.170199871E0
2.932990625E0,1.321299911E0,1.619399905E0,5.377899647E0
2.943001563E0,6.143000126E-1,2.742199898E0,4.510299683E0
2.952982813E0,6.150000095E-1,3.078199863E0,3.464299917E0
2.962992188E0,3.999999762E-1,3.284899950E0,2.365599871E0
2.973004688E0,-5.284000039E-1,4.268399715E0,1.072099924E0
2.982984375E0,-2.530099869E0,6.008800030E0,1.682000011E-1
2.992993750E0,-3.643800020E0,6.999499798E0,1.472999901E-1
3.003006250E0,-3.353999853E0,5.885200024E0,4.614999890E-1
3.012985938E0,-3.388399839E0,2.067899942E0,2.444499969E0
3.022996875E0,8.276000023E-1,-3.766999841E-1,3.220700026E0
3.033007813E0,4.682399750E0,-8.999999762E-1,3.800999880E0
3.042987500E0,4.667500019E0,-1.479699969E0,3.611699820E0
3.053000000E0,2.299999952E0,-2.312399864E0,1.760800004E0
3.063009375E0,1.609599948E0,-2.450799942E0,-5.131999850E-1
3.072990625E0,1.540099978E0,-2.717700005E0,-1.915199995E0
3.083001563E0,1.497699976E0,-3.680799961E0,-2.849699974E0
3.093012500E0,1.628799915E0,-4.803100109E0,-2.433500051E0
3.102992188E0,1.909399986E0,-4.980799675E0,-1.587099910E0
3.113003125E0,3.707399845E0,-5.432499886E0,-1.794099927E0
3.122982813E0,6.346799850E0,-6.246899605E0,-1.298799992E0
3.132993750E0,6.757499695E0,-6.545499802E0,2.818999887E-1
3.143004688E0,6.217299938E0,-5.394000053E0,2.040199995E0
3.152984375E0,6.279299736E0,-4.689199924E0,1.786299944E0
3.162995313E0,5.971899986E0,-4.360899925E0,3.771999776E-1
3.173007813E0,5.042099953E0,-3.472899914E0,-2.143800020E0
3.182985938E0,4.022500038E0,-2.707499981E0,-5.392099857E0
3.192998438E0,3.002899885E0,-2.283699989E0,-7.755499840E0
3.203009375E0,1.831699967E0,-1.708099961E0,-8.925000191E0
3.212989063E0,1.582399964E0,-1.152899981E0,-8.625800133E0
3.223000000E0,1.905699968E0,-5.565999746E-1,-7.411699772E0
3.233010938E0,1.834999919E0,1.420000009E-2,-5.979099751E0
3.242990625E0,1.805799961E0,8.589999676E-1,-4.579400063E0
3.253001563E0,8.316999674E-1,1.711699963E0,-1.425499916E0
3.262982813E0,-1.032699943E0,2.599599838E0,2.159600019E0
3.272993750E0,-2.901999950E0,3.401799917E0,5.783899784E0
3.283004688E0,-4.578700066E0,4.464399815E0,8.664699554E0
3.292982813E0,-5.293600082E0,5.695600033E0,1.087659931E1
3.302993750E0,-5.072999954E0,6.770400047E0,1.182889938E1
3.313006250E0,-4.594199657E0,7.820399761E0,1.042490005E1
3.322985938E0,-3.760799885E0,8.491700172E0,8.401700020E0
3.332996875E0,-3.283900023E0,8.116399765E0,5.603499889E0
3.343007813E0,-3.201599836E0,7.158399582E0,2.816200018E0
3.352987500E0,-2.669299841E0,5.126899719E0,2.581999898E-1
3.362998438E0,-2.691299915E0,2.768999815E0,-1.378700018E0
3.373010938E0,-4.658599854E0,1.459299922E0,-2.847399950E0
3.382989063E0,-7.813799858E0,1.190199971E0,-5.187299728E0
3.393000000E0,-7.311100006E0,9.206999540E-1,-7.255300045E0
3.403012500E0,-4.544199944E0,8.439999819E-1,-8.044400215E0
3.412992188E0,-2.047199965E0,7.114999890E-1,-6.319999695E0
3.423003125E0,-3.240999877E-1,2.721000016E-1,-2.342599869E0
3.432982813E0,3.023000062E-1,-7.001999617E-1,2.797699928E0
3.442993750E0,-2.250999957E-1,-1.444999933E0,6.798699856E0
3.453004688E0,-3.118999898E-1,-2.572199821E0,8.284600258E0
3.462984375E0,-6.949999928E-2,-3.078599930E0,6.976099968E0
3.472995313E0,5.439999700E-2,-2.332099915E0,3.737799883E0
3.483006250E0,7.048999667E-1,-1.508599997E0,6.031000018E-1
3.492985938E0,1.304000020E0,-1.016999960E0,-2.056799889E0
3.502998438E0,1.253199935E0,-6.688999534E-1,-3.728099823E0
3.513009375E0,5.837000012E-1,8.460000157E-2,-4.449100018E0
3.522989063E0,-6.919999719E-1,7.981999516E-1,-5.463299751E0
3.533000000E0,-1.604900002E0,9.994999766E-1,-5.299999714E0
3.543010938E0,-1.910499930E0,1.001500010E0,-3.631799936E0
3.552992188E0,-1.899299979E0,7.181999683E-1,-1.622900009E0
3.563001563E0,-1.570699930E0,3.610999882E-1,3.619000018E-1
3.572981250E0,-9.966999888E-1,5.945000052E-1,2.004400015E0
3.582992188E0,-5.099999905E-2,1.134599924E0,3.349999905E0
3.593003125E0,8.553999662E-1,1.830099940E0,3.644500017E0
3.602984375E0,1.105199933E0,2.595399857E0,3.437199831E0
3.612993750E0,7.005999684E-1,3.086099863E0,2.988600016E0
3.623006250E0,-8.320999742E-1,3.643199921E0,9.358999729E-1
3.632985938E0,-2.595299959E0,4.311800003E0,-1.149199963E0
3.642996875E0,-3.754400015E0,4.798299789E0,-2.266299963E0
3.653007813E0,-4.058099747E0,4.853499889E0,-1.536199927E0
3.662987500E0,-3.250599861E0,4.556099892E0,1.475700021E0
3.673000000E0,-1.438799977E0,3.380599976E0,5.569200039E0
3.683009375E0,5.503000021E-1,1.552599907E0,8.389699936E0
3.692989063E0,2.674599886E0,6.169999763E-2,8.741999626E0
3.703001563E0,4.413399696E0,-6.980999708E-1,5.913499832E0
3.713012500E0,4.612400055E0,-8.966999650E-1,1.811800003E0
3.722992188E0,4.000400066E0,-1.245499969E0,-1.699899912E0
3.733003125E0,3.307399988E0,-1.901799917E0,-3.443799973E0
3.742982813E0,2.538599968E0,-2.564399958E0,-3.096499920E0
3.752993750E0,1.866099954E0,-3.418699980E0,-1.532899976E0
3.763004688E0,1.606099963E0,-4.115699768E0,1.171999946E-1
3.772984375E0,2.025699854E0,-4.882999897E0,1.385999918E0
3.782995313E0,2.582999945E0,-5.565399647E0,1.848699927E0
3.793007813E0,3.215999842E0,-5.662999630E0,1.745799899E0
3.802985938E0,3.626399994E0,-5.511399746E0,1.405499935E0
3.812998438E0,3.752399921E0,-5.203399658E0,7.547000051E-1
3.823009375E0,3.946599960E0,-4.848000050E0,-2.939999998E-1
3.832989063E0,4.213399887E0,-4.706799984E0,-1.476999998E0
3.843000000E0,3.868099928E0,-4.565499783E0,-2.732100010E0
3.853010938E0,3.174799919E0,-4.445199966E0,-3.793999910E0
3.862990625E0,2.353399992E0,-4.217499733E0,-4.271599770E0
3.873003125E0,1.530200005E0,-4.183300018E0,-4.611199856E0
3.882981250E0,5.575000048E-1,-3.936299801E0,-4.457499981E0
3.892992188E0,-6.419999897E-2,-2.842700005E0,-2.889400005E0
3.903003125E0,-2.035999894E-1,-1.396999955E0,-5.868999958E-1
3.912984375E0,3.805999756E-1,1.905999929E-1,2.776199818E0
3.922995313E0,1.531700015E0,1.252799988E0,5.947299957E0
3.933006250E0,3.110199928E0,1.927699924E0,7.088299751E0
3.942985938E0,3.687599897E0,2.572000027E0,4.964999676E0
3.952996875E0,2.608599901E0,3.667699814E0,3.664999902E-1
3.963007813E0,5.343999863E-1,5.110099792E0,-4.710199833E0
3.972987500E0,-2.051899910E0,6.652899742E0,-8.306799889E0
3.983000000E0,-4.400899887E0,7.597499847E0,-9.676599503E0
3.993010938E0,-5.087399960E0,7.816399574E0,-9.330900192E0
4.002989063E0,-6.166899681E0,8.038199425E0,-7.736499786E0
4.013001563E0,-6.388700008E0,7.826999664E0,-5.481999874E0
4.023012500E0,-5.870899677E0,6.638899803E0,-3.250599861E0
4.032993750E0,-4.824599743E0,5.130300045E0,-1.600600004E0
4.043003125E0,-3.886600018E0,3.740399837E0,-1.125900030E0
4.052982813E0,-3.332399845E0,2.802299976E0,-1.539899945E0
4.062993750E0,-3.051999807E0,1.578999996E0,-2.495100021E0
4.073006250E0,-2.873600006E0,5.044000149E-1,-3.378199816E0
4.082984375E0,-2.634399891E0,-4.314999878E-1,-4.380799770E0
4.092995313E0,-2.278399944E0,-1.131099939E0,-4.653699875E0
4.103007813E0,-1.753399968E0,-1.822899938E0,-4.632400036E0
4.112987500E0,-1.298200011E0,-2.268499851E0,-3.702399969E0
4.122998438E0,-9.083999991E-1,-2.704900026E0,-2.344099998E0
4.133010938E0,-1.272799969E0,-3.270900011E0,-1.365899920E0
4.142989063E0,-1.571499944E0,-3.613299847E0,-1.143000007E0
4.153001563E0,-1.981599927E0,-3.884899855E0,-1.822299957E0
4.163010938E0,-2.537899971E0,-3.765899897E0,-2.563999891E0
4.172990625E0,-2.587399960E0,-3.488099813E0,-3.060699940E0
4.183003125E0,-2.367300034E0,-3.419699907E0,-2.944499969E0
4.192982813E0,-2.330100060E0,-3.201200008E0,-2.477799892E0
4.202992188E0,-2.481199980E0,-3.159600019E0,-8.129000068E-1
4.213004688E0,-3.846099854E0,-3.054299831E0,1.591699958E0
4.222984375E0,-4.315400124E0,-2.595899820E0,3.552199841E0
4.232995313E0,-3.481699944E0,-3.113199949E0,4.646500111E0
4.243006250E0,-3.317799807E0,-2.803699970E0,6.516900063E0
4.252985938E0,-2.188099861E0,-7.360000014E-1,1.006009960E1
4.262998438E0,-1.597099900E0,1.746799946E0,1.283319950E1
4.273026563E0,-1.890299916E0,3.285899878E0,1.358599949E1
4.282989063E0,-3.490499973E0,4.877099991E0,1.186109924E1
4.293000000E0,-5.117099762E0,6.673899651E0,9.236999512E0
4.303010938E0,-5.692699909E0,7.340099812E0,6.081699848E0
4.312989063E0,-5.376800060E0,6.895099640E0,2.595999956E0
4.323001563E0,-2.338899851E0,5.121299744E0,-5.658999681E-1
4.333012500E0,3.748499870E0,2.292099953E0,-1.800999999E0
4.342992188E0,8.752900124E0,-3.860999942E-1,9.122999907E-1
4.353003125E0,1.078450012E1,-2.064100027E0,2.739599943E0
4.362982813E0,1.044399929E1,-2.637199879E0,2.744099855E0
4.372993750E0,9.217199326E0,-4.520199776E0,2.715699911E0
4.383006250E0,6.423299789E0,-6.183099747E0,2.652999878E0
4.392985938E0,2.950799942E0,-6.435999870E0,1.673699975E0
4.402995313E0,1.432999969E0,-6.827299595E0,8.871999979E-1
4.413007813E0,9.228000045E-1,-7.013799667E0,1.367399931E0
4.422987500E0,1.926299930E0,-6.691099644E0,4.234899998E0
4.432998438E0,3.416299820E0,-6.154900074E0,7.358799934E0
4.443009375E0,4.012199879E0,-6.332299709E0,8.372900009E0
4.452989063E0,4.843199730E0,-7.630899906E0,8.270899773E0
4.463000000E0,6.358399868E0,-9.048399925E0,6.986399651E0
4.473010938E0,7.911599636E0,-9.731699944E0,4.373399734E0
4.482990625E0,8.656599998E0,-9.566399574E0,6.811000109E-1
4.493003125E0,6.869699955E0,-7.904799938E0,-2.527199984E0
4.502981250E0,4.466599941E0,-6.568599701E0,-4.146299839E0
4.512993750E0,2.525199890E0,-4.548799992E0,-3.164899826E0
4.523004688E0,1.395399928E0,-3.617399931E0,-2.129400015E0
4.532984375E0,1.894000024E-1,-3.218099833E0,-1.620199919E0
4.542993750E0,-6.310999990E-1,-1.995299935E0,-2.437700033E0
4.553006250E0,-7.748000026E-1,-3.300999999E-1,-4.565899849E0
4.562985938E0,-2.379999869E-2,1.403100014E0,-6.477299690E0
4.572996875E0,-2.839999795E-1,3.061599970E0,-7.741600037E0
4.583007813E0,-1.333899975E0,4.910099983E0,-7.746199608E0
4.592987500E0,-2.045899868E0,6.419399738E0,-6.778399944E0
4.603000000E0,-2.648499966E0,7.803499699E0,-3.957899809E0
4.613010938E0,-4.056900024E0,9.686599731E0,4.772000015E-1
4.622990625E0,-4.719099998E0,1.179699993E1,7.028199673E0
4.633003125E0,-1.120199919E0,1.386509991E1,1.479689980E1
4.643012500E0,6.023799896E0,1.455319977E1,2.176210022E1
4.652992188E0,1.385999966E1,1.404099941E1,2.288029861E1
4.663003125E0,1.800529861E1,1.269829941E1,1.631859970E1
4.672982813E0,1.690049934E1,1.266739941E1,7.110099792E0
4.682993750E0,1.333329964E1,1.176189995E1,1.846599936E0
4.693006250E0,8.630899429E0,1.000759983E1,2.235100031E0
4.702985938E0,4.352399826E0,8.022199631E0,4.869899750E0
4.712995313E0,1.465999931E-1,6.407099724E0,5.318999767E0
4.723007813E0,-3.313599825E0,4.810199738E0,2.548399925E0
4.732987500E0,-4.640699863E0,3.638999939E0,-2.145099878E0
4.742998438E0,-6.720399857E0,1.379999995E0,-3.470899820E0
4.753010938E0,-7.501899719E0,-1.040400028E0,-5.430399895E0
4.762990625E0,-6.794099808E0,-3.272099972E0,-6.165400028E0
4.773001563E0,-4.145299911E0,-4.947899818E0,-6.402599812E0
4.783010938E0,-7.840999961E-1,-6.304699898E0,-6.216799736E0
4.792990625E0,2.408699989E0,-6.588599682E0,-6.174699783E0
4.803001563E0,2.395900011E0,-5.871299744E0,-7.249399662E0
4.812982813E0,6.444999576E-1,-5.543999672E0,-8.874099731E0
4.822993750E0,-1.715899944E0,-5.016900063E0,-9.674900055E0
4.833004688E0,-3.776700020E0,-4.583199978E0,-9.021499634E0
4.842984375E0,-5.622900009E0,-4.103300095E0,-8.424799919E0
4.852995313E0,-7.244599819E0,-4.026599884E0,-8.164799690E0
4.863006250E0,-8.313399315E0,-3.766499996E0,-7.886600018E0
4.872987500E0,-9.774899483E0,-3.046900034E0,-7.198799610E0
4.882996875E0,-1.106859970E1,-2.415499926E0,-6.748799801E0
4.893009375E0,-1.119810009E1,-1.801599979E0,-6.361000061E0
4.902987500E0,-1.001840019E1,-1.672299981E0,-5.547299862E0
4.913000000E0,-8.129199982E0,-1.999799967E0,-3.865899801E0
4.923010938E0,-6.045300007E0,-1.971199989E0,-1.477499962E0
4.932990625E0,-4.430599689E0,-1.569399953E0,6.741999984E-1
4.943001563E0,-3.834699869E0,-7.157999873E-1,2.030699968E0
4.952981250E0,-3.339299917E0,-2.816999853E-1,3.195600033E0
4.962992188E0,-2.640199900E0,2.275999933E-1,5.888899803E0
4.973003125E0,-1.489399910E0,4.898999929E-1,9.619500160E0
4.982982813E0,-7.505999804E-1,1.508499980E0,1.337459946E1
4.992995313E0,-1.473500013E0,3.305500031E0,1.485149956E1
5.003006250E0,-4.385299683E0,5.578299999E0,1.493529987E1
5.012984375E0,-9.285299301E0,7.518599987E0,1.663430023E1
5.022995313E0,-1.383419991E1,8.883199692E0,1.930949974E1
5.033009375E0,-1.364159966E1,8.300199509E0,2.076070023E1
5.042987500E0,-6.767199993E0,6.310999870E0,1.888119888E1
5.052998438E0,3.016999960E0,4.487100124E0,1.347309971E1
5.063009375E0,1.026910019E1,2.917399883E0,6.487799644E0
5.072989063E0,1.128170013E1,1.494199991E0,-3.310000002E-1
5.083001563E0,8.441299438E0,-1.594000012E-1,-3.652199984E0
5.093010938E0,3.987399817E0,-2.092299938E0,-2.474499941E0
5.102992188E0,7.317999601E-1,-3.858399868E0,1.240000010E0
5.113003125E0,2.389999926E-1,-4.337599754E0,3.160799980E0
5.122982813E0,2.552099943E0,-5.627699852E0,6.303799629E0
5.132993750E0,6.923999786E0,-6.418999672E0,8.016699791E0
5.143004688E0,1.173069954E1,-7.301099777E0,7.469999790E0
5.152984375E0,1.514449978E1,-7.926399708E0,5.762700081E0
5.162995313E0,1.685980034E1,-8.321499825E0,2.377399921E0
5.173006250E0,1.743999863E1,-8.994799614E0,-1.431699991E0
5.182985938E0,1.645610046E1,-9.309000015E0,-4.063899994E0
5.192996875E0,1.482709980E1,-9.359899521E0,-5.607500076E0
5.203009375E0,1.333139992E1,-9.076099396E0,-6.565700054E0
5.212987500E0,1.220440006E1,-8.591300011E0,-7.752899647E0
5.223000000E0,1.125439930E1,-7.542199612E0,-8.806099892E0
5.233010938E0,1.113409996E1,-6.609799862E0,-9.873199463E0
5.242990625E0,1.039779949E1,-6.154099941E0,-1.081989956E1
5.253001563E0,9.862799644E0,-6.024699688E0,-9.553799629E0
5.262981250E0,9.172800064E0,-5.002500057E0,-6.373600006E0
5.272993750E0,4.527299881E0,-3.553599834E0,-2.679100037E0
5.283006250E0,-1.125999928E0,-1.716899991E0,1.086199999E0
5.292982813E0,-5.457799911E0,1.398000002E0,4.139699936E0
5.302993750E0,-7.399499893E0,4.445699692E0,5.851199627E0
5.313006250E0,-7.923299789E0,7.799099922E0,8.964200020E0
5.322985938E0,-7.495800018E0,9.588699341E0,1.296339989E1
5.332996875E0,-5.605199814E0,1.026709938E1,1.688800049E1
5.343009375E0,-3.208299875E0,1.061030006E1,2.158129883E1
5.352987500E0,-1.536000013E0,1.067259979E1,2.634199905E1
5.362998438E0,2.903999984E-1,9.869400024E0,2.931849861E1
5.373009375E0,-1.549999975E-2,9.543000221E0,2.867519951E1
5.382989063E0,-2.111299992E0,8.917099953E0,2.254579926E1
5.393000000E0,-5.465699673E0,8.968799591E0,1.528619957E1
5.403012500E0,-9.260700226E0,9.017799377E0,8.968799591E0
5.412992188E0,-1.146329975E1,8.371799469E0,3.341899872E0
5.423003125E0,-1.068019962E1,7.538399696E0,-1.940499902E0
5.432982813E0,-7.207299709E0,7.224199772E0,-6.282499790E0
5.442992188E0,-4.130899906E0,6.806999683E0,-1.027139950E1
5.453004688E0,-2.291300058E0,5.832499981E0,-1.376979923E1
5.462984375E0,-1.253299952E0,4.181699753E0,-1.488579941E1
5.472996875E0,-9.822999835E-1,2.370499849E0,-1.341629982E1
5.483006250E0,-9.792999625E-1,1.402599931E0,-1.191720009E1
5.492985938E0,-1.252699971E0,-2.644000053E-1,-9.066699982E0
5.502996875E0,-1.502499938E0,-1.634799957E0,-8.638799667E0
5.513009375E0,-1.350199938E0,-2.492799997E0,-8.776700020E0
5.522989063E0,-1.218500018E0,-2.738099813E0,-9.427700043E0
5.533000000E0,-1.673900008E0,-2.846599817E0,-1.020569992E1
5.543010938E0,-2.672399998E0,-2.759099960E0,-1.120709991E1
5.552990625E0,-3.794499874E0,-2.846899986E0,-1.154449940E1
5.563001563E0,-4.993799686E0,-3.037099838E0,-1.109619999E1
5.572981250E0,-5.997200012E0,-3.534199953E0,-1.045059967E1
5.582992188E0,-6.236799717E0,-3.977399826E0,-9.444299698E0
5.593004688E0,-5.173500061E0,-4.170199871E0,-8.115099907E0
5.602984375E0,-2.862900019E0,-4.414599895E0,-6.465199947E0
5.612995313E0,-1.009999990E0,-4.444999695E0,-5.001699924E0
5.623006250E0,8.139999509E-1,-5.109099865E0,-3.434499979E0
5.632985938E0,1.045899987E0,-5.071700096E0,-9.512999654E-1
5.642995313E0,8.312000036E-1,-4.759799957E0,2.328899860E0
5.653007813E0,6.714999676E-1,-4.323100090E0,4.946399689E0
5.662987500E0,1.743000001E-1,-3.516299963E0,7.782899857E0
5.672998438E0,-7.222999930E-1,-2.148499966E0,1.030420017E1
5.683009375E0,-1.338500023E0,-9.347999692E-1,1.263070011E1
5.692989063E0,-2.072099924E0,3.343999982E-1,1.482870007E1
5.703000000E0,-3.701099873E0,1.906699896E0,1.619219971E1
5.713012500E0,-5.961699963E0,3.669699907E0,1.776519966E1
5.722992188E0,-8.033699989E0,5.260999680E0,1.832359886E1
5.733003125E0,-8.550199509E0,6.895199776E0,1.721579933E1
5.742982813E0,-7.291100025E0,7.987799644E0,1.464419937E1
5.752993750E0,-4.825599670E0,8.416799545E0,1.043470001E1
5.763004688E0,-1.304000020E0,7.733899593E0,5.281300068E0
5.772984375E0,3.248699903E0,6.181799889E0,5.347999930E-1
5.782995313E0,7.198899746E0,4.339499950E0,-2.476199865E0
5.793007813E0,9.716199875E0,2.015799999E0,-3.748799801E0
5.802985938E0,1.061880016E1,-9.085999727E-1,-3.253299952E0
5.812996875E0,1.084639931E1,-3.530099869E0,-1.882900000E0
5.823009375E0,1.071039963E1,-5.888000011E0,-3.296999931E-1
5.832989063E0,1.060989952E1,-7.401799679E0,1.197299957E0
5.843000000E0,1.096019936E1,-8.804900169E0,2.518899918E0
5.853010938E0,1.208329964E1,-9.292399406E0,3.698199987E0
5.862990625E0,1.256989956E1,-8.920299530E0,4.121999741E0
5.873001563E0,1.415069962E1,-8.003899574E0,4.313600063E0
5.882981250E0,1.498009968E1,-7.034100056E0,3.343099833E0
5.892992188E0,1.412839985E1,-6.512499809E0,2.900799990E0
5.903003125E0,1.226060009E1,-5.489399910E0,4.233999729E0
5.912984375E0,9.978300095E0,-4.228399754E0,7.524999619E0
5.922993750E0,8.620699883E0,-2.953500032E0,1.135120010E1
5.933006250E0,7.634099960E0,-2.220099926E0,1.445709991E1
5.942985938E0,6.689899921E0,-1.616699934E0,1.527899933E1
5.952996875E0,5.332900047E0,-4.925999939E-1,1.386319923E1
5.963007813E0,3.428200006E0,1.751299977E0,1.077110004E1
5.972987500E0,4.910000041E-2,4.125899792E0,4.709300041E0
5.982998438E0,-5.200500011E0,7.475899696E0,-1.794099927E0
5.993009375E0,-1.071759987E1,1.081610012E1,-6.149600029E0
6.002989063E0,-1.448659992E1,1.308019924E1,-6.519700050E0
6.013001563E0,-1.562500000E1,1.242280006E1,-4.314799786E0
6.023012500E0,-1.438949966E1,9.601499557E0,-1.812299967E0
6.032992188E0,-1.221850014E1,7.330099583E0,-5.338000059E-1
6.043003125E0,-9.741099358E0,5.526000023E0,-7.422999740E-1
6.052982813E0,-6.233900070E0,4.067100048E0,-1.922799945E0
6.062993750E0,-3.170099974E0,3.543699980E0,-4.145599842E0
6.073006250E0,-1.769099951E0,3.424299955E0,-6.867799759E0
6.082984375E0,-1.666499972E0,3.521099806E0,-8.686599731E0
6.092995313E0,-2.413499832E0,3.290499926E0,-9.409999847E0
6.103006250E0,-3.105099916E0,2.729899883E0,-9.044400215E0
6.112985938E0,-3.594699860E0,1.731599927E0,-8.455699921E0
6.122998438E0,-3.650699854E0,3.643999994E-1,-8.121500015E0
6.133009375E0,-3.182799816E0,-6.711999774E-1,-7.219399929E0
6.142989063E0,-2.541199923E0,-1.386299968E0,-6.280799866E0
6.153000000E0,-1.854599953E0,-1.993699908E0,-5.415299892E0
6.163010938E0,-9.474999905E-1,-2.311800003E0,-4.981100082E0
6.172990625E0,3.664999902E-1,-2.747099876E0,-4.325399876E0
6.183001563E0,1.594900012E0,-3.258699894E0,-3.498699903E0
6.192982813E0,2.573899984E0,-3.757099867E0,-2.679699898E0
6.202992188E0,2.595999956E0,-4.052799702E0,-1.748099923E0
6.213004688E0,2.195899963E0,-4.316599846E0,-2.175000012E-1
6.222984375E0,1.237999916E0,-4.598000050E0,1.632900000E0
6.232993750E0,6.487999558E-1,-4.003499985E0,3.429399967E0
6.243006250E0,-1.121999979E0,-3.888999939E0,3.747999907E0
6.252985938E0,-2.510399818E0,-2.824100018E0,3.804499865E0
6.262996875E0,-3.380899906E0,-1.650200009E0,3.253999949E0
6.273009375E0,-3.956799984E0,-1.118999958E0,4.429699898E0
6.282987500E0,-5.679999828E0,-4.387999773E-1,9.041500092E0
6.293000000E0,-7.447399616E0,-3.929999843E-2,1.357030010E1
6.303010938E0,-8.684199333E0,3.931999803E-1,1.589820004E1
6.312990625E0,-7.692999840E0,1.401499987E0,1.331239986E1
6.323001563E0,-3.999099970E0,2.703199863E0,7.592099667E0
6.333012500E0,3.373999894E-1,4.391399860E0,3.920899868E0
6.342992188E0,3.268199921E0,5.675199986E0,4.510999680E0
6.353003125E0,4.160799980E0,6.204799652E0,6.404799938E0
6.362982813E0,4.291100025E0,6.498499870E0,5.936699867E0
6.372993750E0,4.592000008E0,6.103199959E0,2.743000031E0
6.383004688E0,5.535399914E0,5.296099663E0,-9.835000038E-1
6.392984375E0,6.216000080E0,4.300099850E0,-3.654299974E0
6.402995313E0,6.630199909E0,2.527899981E0,-4.907099724E0
6.413007813E0,7.209799767E0,3.901999891E-1,-6.325199604E0
6.422987500E0,7.003900051E0,-1.443099976E0,-7.157199860E0
6.432998438E0,6.026700020E0,-2.543099880E0,-7.125499725E0
6.443009375E0,4.715499878E0,-3.385499954E0,-7.207900047E0
6.452989063E0,3.478999853E0,-4.373099804E0,-7.993700027E0
6.463000000E0,2.755599976E0,-5.045799732E0,-7.837899685E0
6.473010938E0,2.916699886E0,-5.588500023E0,-5.511600018E0
6.482990625E0,4.589900017E0,-6.476599693E0,-2.304299831E0
6.493001563E0,6.908999920E0,-8.042099953E0,6.222999692E-1
6.502981250E0,9.477299690E0,-9.329799652E0,1.956200004E0
6.512992188E0,1.160470009E1,-1.014379978E1,1.312500000E0
6.523004688E0,1.340880013E1,-1.026499939E1,-2.484999895E-1
6.532984375E0,1.322789955E1,-9.897899628E0,-1.593299985E0
6.542995313E0,1.143410015E1,-9.367199898E0,-1.306699991E0
6.553007813E0,8.260799408E0,-8.647999763E0,8.032999635E-1
6.562985938E0,5.104700089E0,-7.213199615E0,4.169099808E0
6.572996875E0,2.658699989E0,-5.414599895E0,8.151800156E0
6.583007813E0,1.900999904E0,-3.070799828E0,1.168309975E1
6.592987500E0,3.348399878E0,-7.559999824E-2,1.436459923E1
6.603000000E0,6.229599953E0,2.960500002E0,1.837399864E1
6.613009375E0,8.071100235E0,5.442399979E0,2.658230019E1
6.622990625E0,8.237899780E0,7.053499699E0,3.114449883E1
6.633001563E0,7.984299660E0,1.037319946E1,3.615049744E1
6.643012500E0,8.049699783E0,1.346059990E1,3.276969910E1
6.652992188E0,9.975399971E0,1.592910004E1,1.967239952E1
6.663003125E0,1.178849983E1,1.790469933E1,5.116199970E0
6.672984375E0,9.714300156E0,1.837959862E1,-5.931000113E-1
6.682993750E0,2.475800037E0,1.698729897E1,1.938799977E0
6.693004688E0,-7.153599739E0,1.468769932E1,4.963799953E0
6.702984375E0,-1.423289967E1,1.257639980E1,7.339799881E0
6.712995313E0,-1.758219910E1,9.691100121E0,8.171599388E0
6.723007813E0,-1.782670021E1,5.795700073E0,5.809899807E0
6.732985938E0,-1.596499920E1,2.615900040E0,1.482899904E0
6.742998438E0,-1.359389973E1,1.304499984E0,-4.446700096E0
6.753009375E0,-1.072879982E1,3.322999775E-1,-9.282199860E0
6.762989063E0,-8.346300125E0,-7.746999860E-1,-1.018529987E1
6.773000000E0,-7.491799831E0,-1.974099994E0,-7.616099834E0
6.783010938E0,-7.668699741E0,-2.814399958E0,-4.121799946E0
6.792992188E0,-7.481999874E0,-3.308300018E0,-1.876500010E0
6.803003125E0,-7.366699696E0,-3.211299896E0,-1.174199939E0
6.812982813E0,-6.756999969E0,-2.739399910E0,-1.890199900E0
6.822993750E0,-5.812399864E0,-1.924099922E0,-4.523600101E0
6.833004688E0,-3.930399895E0,-9.329999685E-1,-7.893499851E0
6.842984375E0,-2.341500044E0,8.509999514E-2,-1.082549953E1
6.852995313E0,-7.961999774E-1,8.440999985E-1,-1.259459972E1
6.863006250E0,3.658999801E-1,1.232999921E0,-1.351569939E1
6.872985938E0,1.255800009E0,9.548999667E-1,-1.353969955E1
6.882996875E0,2.286900043E0,-1.699999906E-3,-1.255009937E1
6.893007813E0,3.914599895E0,-1.436399937E0,-9.671299934E0
6.902987500E0,5.322499752E0,-2.166399956E0,-5.145299911E0
6.913000000E0,5.711799622E0,-2.175099850E0,-2.082999945E0
6.923009375E0,5.962699890E0,-2.213199854E0,-1.166700006E0
6.932990625E0,6.110099792E0,-2.145699978E0,-6.240000129E-1
6.943001563E0,5.754499912E0,-2.024600029E0,3.166999817E-1
6.953012500E0,5.604499817E0,-2.099400043E0,1.229799986E0
6.962992188E0,5.552499771E0,-2.240399837E0,2.096099854E0
6.973003125E0,5.265399933E0,-1.486499906E0,2.951200008E0
6.982982813E0,5.309000015E0,4.202999771E-1,3.526799917E0
6.992993750E0,4.687699795E0,1.664399981E0,3.725399971E0
7.003006250E0,4.874099731E0,4.577899933E0,4.779099941E0
7.012985938E0,5.065700054E0,7.817199707E0,8.538899422E0
7.022996875E0,3.978899956E0,1.029139996E1,1.798929977E1
7.033007813E0,7.328999639E-1,1.260879993E1,3.391329956E1
7.042987500E0,4.442999959E-1,1.433529949E1,4.934090042E1
7.052998438E0,6.243599892E0,1.476819992E1,5.531879807E1
7.063009375E0,1.638590050E1,1.443619919E1,4.816469955E1
7.072989063E0,2.594409943E1,1.364069939E1,3.409259796E1
7.083000000E0,2.870059967E1,1.245709991E1,2.166189957E1
7.093010938E0,2.433329964E1,1.019989967E1,1.441269970E1
7.102990625E0,1.608740044E1,6.506599903E0,1.137799931E1
7.113001563E0,6.954499722E0,2.554899931E0,9.491700172E0
7.122982813E0,-1.075299978E0,-6.600999832E-1,6.042500019E0
7.132993750E0,-6.985899925E0,-2.305899858E0,1.185599923E0
7.143004688E0,-1.084449959E1,-3.035300016E0,-4.111799717E0
7.152984375E0,-1.253380013E1,-3.976899862E0,-8.431699753E0
7.162995313E0,-1.290719986E1,-5.339999676E0,-1.205709934E1
7.173006250E0,-1.236450005E1,-6.567499638E0,-1.581639957E1
7.182985938E0,-1.184179974E1,-8.194899559E0,-1.901429939E1
7.192996875E0,-1.145370007E1,-1.050599957E1,-1.986610031E1
7.203007813E0,-1.087189960E1,-1.303349972E1,-1.765079880E1
7.212987500E0,-1.024139977E1,-1.505410004E1,-1.406509972E1
7.223000000E0,-8.759499550E0,-1.716689873E1,-1.119369984E1
7.233010938E0,-6.819699764E0,-1.864579964E1,-9.506099701E0
7.242990625E0,-5.022699833E0,-1.908429909E1,-9.012000084E0
7.253001563E0,-3.507399797E0,-1.793649864E1,-9.658100128E0
7.263012500E0,-2.662999868E0,-1.562309933E1,-1.177339935E1
7.272992188E0,-2.496899843E0,-1.273079967E1,-1.505889988E1
7.283003125E0,-2.254199982E0,-9.982699394E0,-1.832069969E1
7.292982813E0,-2.296799898E0,-7.357100010E0,-2.069680023E1
7.302993750E0,-2.481699944E0,-4.021599770E0,-2.118129921E1
7.313006250E0,-1.603299975E0,1.550999999E0,-1.800879860E1
7.322984375E0,2.034399986E0,4.311299801E0,-9.373499870E0
7.332996875E0,4.374199867E0,2.685999870E0,-2.847399950E0
7.343007813E0,5.801300049E0,1.294299960E0,2.519299984E0
7.352987500E0,6.103999615E0,6.838999987E-1,6.912199974E0
7.362998438E0,5.268599987E0,1.164099932E0,1.012259960E1
7.373009375E0,4.657999992E0,1.691299915E0,1.100189972E1
7.382989063E0,3.984999895E0,2.982499838E0,1.096589947E1
7.393001563E0,3.661799908E0,4.354099751E0,1.015429974E1
7.403010938E0,4.254099846E0,5.970599651E0,9.555799484E0
7.412990625E0,5.186800003E0,7.590099812E0,1.010159969E1
7.423003125E0,5.664000034E0,9.484600067E0,1.163999939E1
7.432982813E0,5.074500084E0,1.156949997E1,1.349059963E1
7.442993750E0,3.177899837E0,1.373259926E1,1.491809940E1
7.453004688E0,8.718000054E-1,1.662249947E1,1.783930016E1
7.462984375E0,4.601999819E-1,1.928890038E1,2.224959946E1
7.472995313E0,2.200799942E0,2.084109879E1,2.820310020E1
7.483006250E0,6.433099747E0,2.045590019E1,3.596640015E1
7.492985938E0,9.518400192E0,1.921909904E1,4.275119781E1
7.502996875E0,1.062580013E1,1.695089912E1,4.576569748E1
7.513009375E0,1.167949963E1,1.238239956E1,4.859429932E1
7.522987500E0,1.472959995E1,7.042899609E0,4.997689819E1
7.533000000E0,1.770969963E1,2.523000002E0,4.418090057E1
7.543010938E0,1.766020012E1,3.680999875E-1,2.959669876E1
7.552990625E0,1.441099930E1,-4.360999763E-1,1.214629936E1
7.563001563E0,1.032100010E1,-2.324000001E-1,-1.696999907E0
7.573012500E0,6.151099682E0,-4.539999738E-2,-8.682099342E0
7.582992188E0,1.910899997E0,-5.798000097E-1,-1.132339954E1
7.593003125E0,-1.545199990E0,-1.519799948E0,-1.275669956E1
7.602982813E0,-2.850100040E0,-2.507200003E0,-1.465609932E1
7.612993750E0,-2.592299938E0,-2.640199900E0,-1.720520020E1
7.623006250E0,-9.722999930E-1,-2.198099852E0,-1.879209900E1
7.632985938E0,4.942999780E-1,-2.056699991E0,-1.809070015E1
7.642995313E0,1.386999935E-1,-2.006099939E0,-1.465240002E1
7.653007813E0,-2.557399988E0,-1.843799949E0,-9.447299957E0
7.662987500E0,-4.625000000E0,-1.807899952E0,-4.983399868E0
7.672998438E0,-5.790699959E0,-2.286799908E0,-2.580399990E0
7.683009375E0,-7.176300049E0,-2.540400028E0,-1.404399991E0
7.692989063E0,-8.188099861E0,-2.760299921E0,-1.092000008E0
7.703000000E0,-8.862299919E0,-2.514099836E0,-2.377300024E0
7.713010938E0,-8.419499397E0,-1.925300002E0,-4.433399677E0
7.722990625E0,-7.287299633E0,-9.279999733E-1,-7.335999966E0
7.733003125E0,-6.180599689E0,-1.565999985E-1,-1.018979931E1
7.742982813E0,-5.747099876E0,3.674999774E-1,-1.255760002E1
7.752993750E0,-4.723099709E0,1.034799933E0,-1.315319920E1
7.763004688E0,-4.096399784E0,1.673799992E0,-1.424539948E1
7.772984375E0,-4.041100025E0,1.622599959E0,-1.419819927E1
7.782995313E0,-5.337699890E0,3.137999773E-1,-1.246369934E1
7.793006250E0,-6.292699814E0,-3.521199942E0,-3.787099838E0
7.802985938E0,-8.115999699E-1,-2.760200024E0,3.005699873E0
7.812996875E0,1.528199911E0,-2.036000013E0,3.867100000E0
7.823009375E0,2.530299902E0,-1.822099924E0,4.352699757E0
7.832989063E0,2.565299988E0,-1.976300001E0,4.815599918E0
7.843000000E0,2.638700008E0,-2.389099836E0,5.448699951E0
7.853010938E0,2.949299812E0,-2.692499876E0,6.096799850E0
7.862990625E0,3.738299847E0,-3.060099840E0,5.802399635E0
7.873003125E0,4.877199650E0,-3.302099943E0,4.604599953E0
7.882981250E0,5.817599773E0,-3.170699835E0,3.264299870E0
7.892992188E0,6.423999786E0,-3.119400024E0,2.793799877E0
7.903003125E0,6.072499752E0,-3.198799849E0,3.623699903E0
7.912982813E0,4.881599903E0,-3.374799967E0,5.393099785E0
7.922993750E0,3.690199852E0,-3.464399815E0,7.417199612E0
7.933006250E0,2.914099932E0,-3.263799906E0,9.067199707E0
7.942984375E0,3.064899921E0,-2.898299932E0,1.048400021E1
7.952995313E0,3.952299833E0,-2.598299980E0,1.176819992E1
7.963007813E0,3.760299921E0,-1.302999973E0,1.256059933E1
7.972987500E0,1.841399908E0,8.650999665E-1,1.239849949E1
7.982998438E0,-8.628999591E-1,3.067199945E0,1.205970001E1
7.993010938E0,-3.722299814E0,5.420300007E0,1.211059952E1
8.002989063E0,-6.057399750E0,7.529199600E0,1.337589931E1
8.013000000E0,-5.541100025E0,8.062099457E0,1.525629997E1
8.023010938E0,-2.081300020E0,7.246500015E0,1.824740028E1
8.032990625E0,2.371799946E0,6.378799915E0,1.939249992E1
8.043001563E0,7.112199783E0,4.893799782E0,1.742119980E1
8.052981250E0,1.059949970E1,3.297099829E0,1.278719997E1
8.062993750E0,1.178160000E1,2.077999830E0,7.580299854E0
8.073004688E0,1.102099991E1,6.574999690E-1,4.018799782E0
8.082984375E0,9.261199951E0,-8.108999729E-1,2.451900005E0
8.092995313E0,6.724699974E0,-2.538800001E0,2.302199841E0
8.103006250E0,4.537099838E0,-4.046999931E0,2.772199869E0
8.112987500E0,3.225899935E0,-5.204999924E0,3.891199827E0
8.122996875E0,2.728799820E0,-5.485399723E0,4.145699978E0
8.133007813E0,2.215399981E0,-6.365299702E0,4.352399826E0
8.142989063E0,2.753299952E0,-7.425199986E0,4.052099705E0
8.153000000E0,4.032599926E0,-8.435500145E0,3.763399839E0
8.163010938E0,5.097300053E0,-9.368100166E0,2.789499998E0
8.172990625E0,6.332699776E0,-9.917200089E0,1.137699962E0
8.183001563E0,7.588699818E0,-1.004019928E1,-1.112200022E0
8.192981250E0,8.499799728E0,-1.027419949E1,-3.808899879E0
8.202992188E0,8.782799721E0,-1.041659927E1,-6.174399853E0
8.213004688E0,8.458899498E0,-1.023929977E1,-7.897099972E0
8.222984375E0,7.684599876E0,-9.899099350E0,-8.769299507E0
8.232995313E0,6.525499821E0,-9.230999947E0,-8.452799797E0
8.243006250E0,4.911200047E0,-8.160799980E0,-7.627699852E0
8.252985938E0,3.399199963E0,-7.016799927E0,-6.655099869E0
8.262996875E0,3.338500023E0,-5.970900059E0,-4.944499969E0
8.273009375E0,4.109200001E0,-4.194699764E0,-2.913300037E0
8.282987500E0,4.798699856E0,-1.978299975E0,-2.051699877E0
8.292998438E0,4.805200100E0,-1.094999984E-1,-3.157099962E0
8.303009375E0,5.074299812E0,6.110000014E-1,-4.733500004E0
8.312989063E0,5.706399918E0,8.513999581E-1,-5.421599865E0
8.323000000E0,6.031399727E0,8.534999490E-1,-2.835999966E0
8.333012500E0,5.931399822E0,1.206900001E0,3.196899891E0
8.343034375E0,5.747299671E0,1.969299912E0,9.060599327E0
8.353003125E0,6.493700027E0,2.823199987E0,1.037839985E1
8.362982813E0,6.130199909E0,4.320899963E0,7.317699909E0
8.372993750E0,4.545499802E0,6.704099655E0,4.574599743E0
8.383004688E0,1.510999918E0,8.841300011E0,7.416899681E0
8.392984375E0,-2.704099894E0,9.461500168E0,1.572469997E1
8.402995313E0,-6.808499813E0,8.493299484E0,2.405489922E1
8.413006250E0,-9.784999847E0,7.701499939E0,2.763089943E1
8.422985938E0,-1.249339962E1,7.748699665E0,2.650739861E1
8.432998438E0,-1.433449936E1,8.050399780E0,2.238949966E1
8.443009375E0,-1.432769966E1,8.475299835E0,1.704520035E1
8.452989063E0,-1.299269962E1,8.754400253E0,1.133059978E1
8.463000000E0,-1.096630001E1,9.091199875E0,5.260099888E0
8.473010938E0,-8.888400078E0,9.027299881E0,4.675999880E-1
8.482990625E0,-7.499399662E0,8.462800026E0,-2.988999844E0
8.493001563E0,-6.327199936E0,7.495800018E0,-4.970699787E0
8.502981250E0,-5.813299656E0,6.673999786E0,-5.539000034E0
8.512992188E0,-5.760600090E0,5.178299904E0,-6.244799614E0
8.523004688E0,-6.516499996E0,3.801100016E0,-6.831599712E0
8.532984375E0,-6.859699726E0,2.909899950E0,-6.715099812E0
8.542993750E0,-7.037499905E0,2.434700012E0,-6.325099945E0
8.553006250E0,-6.408400059E0,2.115799904E0,-6.430500031E0
8.562985938E0,-5.038399696E0,2.003200054E0,-7.330299854E0
8.572996875E0,-3.612799883E0,1.862699986E0,-8.184199333E0
8.583007813E0,-2.441099882E0,1.703299999E0,-8.663299561E0
8.592989063E0,-1.768099904E0,1.377699971E0,-8.724399567E0
8.603000000E0,-1.358999968E0,7.217999697E-1,-8.117099762E0
8.613009375E0,-1.410699964E0,7.124999762E-1,-6.889999866E0
8.622989063E0,-1.613099933E0,6.681999564E-1,-5.511799812E0
8.633001563E0,-1.972799897E0,4.668999910E-1,-4.137399673E0
8.643012500E0,-2.548399925E0,-3.499999875E-3,-2.683699846E0
8.652992188E0,-2.680799961E0,-9.569999576E-2,-7.443999648E-1
8.663003125E0,-2.365000010E0,4.345999956E-1,1.882499933E0
8.672982813E0,-1.908499956E0,1.435699940E0,5.746500015E0
8.682993750E0,-1.334999919E0,2.293900013E0,9.290999413E0
8.693004688E0,-1.353699923E0,2.843499899E0,1.089149952E1
8.702984375E0,-2.204699993E0,3.945899963E0,1.062549973E1
8.712995313E0,-2.889099836E0,5.411799908E0,9.937600136E0
8.723006250E0,-2.609200001E0,7.055299759E0,9.861999512E0
8.732987500E0,-1.260200024E0,8.192399979E0,1.136469936E1
8.742996875E0,1.335899949E0,7.837499619E0,1.359149933E1
8.753009375E0,4.172999859E0,6.061299801E0,1.493610001E1
8.762989063E0,5.833699703E0,3.253499985E0,1.461590004E1
8.773000000E0,6.602699757E0,6.999999750E-4,1.319659996E1
8.783010938E0,7.014799595E0,-2.655999899E0,1.067070007E1
8.792990625E0,7.305399895E0,-4.340799809E0,7.714699745E0
8.803001563E0,7.105700016E0,-5.133299828E0,4.645499706E0
8.812981250E0,6.819099903E0,-5.369699955E0,2.349099874E0
8.822992188E0,6.450299740E0,-5.408999920E0,1.699999906E-3
8.833004688E0,6.223899841E0,-5.677000046E0,-1.857800007E0
8.842984375E0,6.083799839E0,-6.479199886E0,-3.357499838E0
8.852993750E0,5.710899830E0,-7.461299896E0,-3.988399982E0
8.863006250E0,5.021599770E0,-8.527599335E0,-4.033299923E0
8.872985938E0,4.551899910E0,-9.747300148E0,-3.494099855E0
8.882996875E0,4.404200077E0,-1.059149933E1,-3.965600014E0
8.893007813E0,5.089799881E0,-1.206120014E1,-4.429899693E0
8.902987500E0,6.435299873E0,-1.294180012E1,-5.619400024E0
8.912998438E0,8.303999901E0,-1.303170013E1,-7.164700031E0
8.923009375E0,9.634200096E0,-1.176060009E1,-8.803400040E0
8.932990625E0,9.585100174E0,-1.010830021E1,-1.075129986E1
8.943001563E0,8.026299477E0,-8.525300026E0,-1.201289940E1
8.953012500E0,5.689599991E0,-7.349899769E0,-1.233649921E1
8.962992188E0,3.525199890E0,-6.560499668E0,-9.528100014E0
8.973003125E0,1.524399996E0,-5.916299820E0,-5.039899826E0
8.982982813E0,4.873999953E-1,-5.385499954E0,-2.628999949E0
8.992993750E0,6.759999692E-2,-4.635099888E0,-2.247200012E0
9.003004688E0,-1.039000005E-1,-3.263099909E0,-2.352399826E0
9.012984375E0,-5.539999604E-1,-1.643999934E0,-1.983699918E0
9.022995313E0,-1.305899978E0,1.911999881E-1,-1.051499963E0
9.033006250E0,-2.937500000E0,2.864500046E0,1.078699946E0
9.042985938E0,-4.364200115E0,5.178099632E0,5.591599941E0
9.052998438E0,-5.003200054E0,7.590099812E0,1.425479984E1
9.063009375E0,-4.195899963E0,1.100299931E1,2.430019951E1
9.072989063E0,-2.093799829E0,1.480719948E1,2.890869904E1
9.083000000E0,2.030799866E0,1.673589897E1,2.862609863E1
9.093010938E0,5.615099907E0,1.666489983E1,2.889569855E1
9.102990625E0,6.646499634E0,1.519749928E1,3.128469849E1
9.113001563E0,4.587800026E0,1.355550003E1,3.227349854E1
9.122981250E0,1.976999938E-1,1.289379978E1,2.854869843E1
9.132993750E0,-4.113399982E0,1.313119984E1,2.064760017E1
9.143003125E0,-6.931599617E0,1.362169933E1,1.244189930E1
9.152984375E0,-8.463799477E0,1.308449936E1,5.882499695E0
9.162993750E0,-8.154199600E0,1.101669979E1,1.866899967E0
9.173006250E0,-6.114899635E0,8.561699867E0,-1.940999925E-1
9.182985938E0,-3.143100023E0,6.583699703E0,-2.104099989E0
9.192996875E0,-5.311999917E-1,4.945899963E0,-5.081199646E0
9.203007813E0,2.489999980E-1,3.424199820E0,-8.625599861E0
9.212987500E0,-2.276999950E-1,1.985499978E0,-1.117070007E1
9.222998438E0,-1.277799964E0,1.188699961E0,-1.235890007E1
9.233010938E0,-2.548199892E0,4.540999830E-1,-1.243410015E1
9.242989063E0,-3.743699789E0,1.067999974E-1,-1.234289932E1
9.253000000E0,-4.323599815E0,-1.083999947E-1,-1.220749950E1
9.263012500E0,-5.538099766E0,-3.599999845E-2,-1.222349930E1
9.272992188E0,-6.423899651E0,1.656000018E-1,-1.250459957E1
9.283003125E0,-7.011600018E0,5.774999857E-1,-1.265769958E1
9.292982813E0,-7.343199730E0,7.396000028E-1,-1.243239975E1
9.302993750E0,-7.633299828E0,5.719999671E-1,-1.117329979E1
9.313006250E0,-7.984200001E0,-2.759999931E-1,-8.869599342E0
9.322984375E0,-8.479800224E0,-1.032500029E0,-6.019499779E0
9.332995313E0,-8.175000191E0,-1.460500002E0,-3.523299932E0
9.343007813E0,-7.027400017E0,-1.737299919E0,-1.539999962E0
9.352987500E0,-5.515599728E0,-1.386199951E0,1.169700027E0
9.362998438E0,-4.731699944E0,-9.663999677E-1,5.687099934E0
9.373009375E0,-5.271100044E0,-2.450999916E-1,1.218649960E1
9.382989063E0,-6.563099861E0,1.227499962E0,1.831649971E1
9.393000000E0,-7.581899643E0,3.175699949E0,2.117359924E1
9.403010938E0,-6.028500080E0,4.554699898E0,2.189959908E1
9.412990625E0,-1.882099986E0,4.968999863E0,2.393529892E1
9.423003125E0,3.498399973E0,3.283900023E0,2.663829994E1
9.432982813E0,8.372099876E0,6.199999712E-3,2.630939865E1
9.442992188E0,1.151279926E1,-2.921599865E0,2.239970016E1
9.453004688E0,1.239739990E1,-4.155299664E0,1.581909943E1
9.462984375E0,1.190009975E1,-4.511699677E0,9.309199333E0
9.472995313E0,1.092109966E1,-4.795199871E0,4.364200115E0
9.483006250E0,9.914400101E0,-5.109299660E0,1.348999977E0
9.492985938E0,9.632599831E0,-5.391699791E0,-1.951999962E-1
9.502996875E0,9.375599861E0,-5.512199879E0,-7.031999826E-1
9.513007813E0,8.204500198E0,-5.574999809E0,-5.701999664E-1
9.522987500E0,6.228199959E0,-6.336599827E0,8.529999852E-2
9.533000000E0,4.435499668E0,-7.626799583E0,7.921999693E-1
9.543010938E0,3.709699869E0,-8.910900116E0,1.554899931E0
9.552990625E0,3.955099821E0,-1.005809975E1,1.085899949E0
9.563001563E0,4.800999641E0,-1.063229942E1,-2.949000001E-1
9.573012500E0,5.953299999E0,-1.045009995E1,-2.782999992E0
9.582992188E0,6.757499695E0,-9.588600159E0,-5.631799698E0
9.593003125E0,6.653399944E0,-8.090399742E0,-8.331999779E0
9.602982813E0,6.002399921E0,-6.599199772E0,-1.092549992E1
9.612993750E0,5.548999786E0,-5.028999805E0,-1.270059967E1
9.623004688E0,4.922599792E0,-3.669600010E0,-1.391160011E1
9.632984375E0,4.120999813E0,-2.939800024E0,-1.416580009E1
9.642995313E0,2.811599970E0,-1.847000003E0,-1.408739948E1
9.653007813E0,1.230199933E0,-8.014000058E-1,-1.273559952E1
9.662987500E0,-4.518999755E-1,3.001999855E-1,-1.041029930E1
9.672998438E0,-1.823899984E0,1.605099916E0,-7.841699600E0
9.683009375E0,-2.224599838E0,3.067299843E0,-5.315899849E0
9.692989063E0,-1.320199966E0,4.049799919E0,-3.238899946E0
9.703000000E0,-8.339999616E-2,4.502500057E0,-1.533899903E0
9.713010938E0,1.189299941E0,5.148399830E0,1.970999986E-1
9.722990625E0,1.610999942E0,6.381000042E0,4.482699871E0
9.733003125E0,3.663299799E0,7.837899685E0,1.105980015E1
9.742981250E0,7.455599785E0,9.314499855E0,1.593959999E1
9.752992188E0,1.130289936E1,1.111439991E1,1.808799934E1
9.763004688E0,1.330119991E1,1.197259998E1,1.899129868E1
9.772984375E0,1.362319946E1,1.114279938E1,1.967689896E1
9.782995313E0,1.181869984E1,9.973999977E0,1.986660004E1
9.793006250E0,8.602499962E0,9.008099556E0,1.905850029E1
9.802985938E0,4.996399879E0,7.693299770E0,1.637349892E1
9.812996875E0,1.430999994E0,6.529199600E0,1.243069935E1
9.823007813E0,-2.273599863E0,5.474699974E0,7.990799904E0
9.832987500E0,-5.439399719E0,4.647299767E0,4.452899933E0
9.842998438E0,-7.572299957E0,3.866400003E0,1.596699953E0
9.853010938E0,-8.645999908E0,3.250299931E0,-4.874999821E-1
9.862989063E0,-8.837900162E0,2.836400032E0,-2.371299982E0
9.873001563E0,-8.178699493E0,2.345999956E0,-4.542399883E0
9.883012500E0,-7.307499886E0,1.836599946E0,-6.247499943E0
9.892992188E0,-6.469799995E0,1.203099966E0,-7.568799973E0
9.903003125E0,-5.486099720E0,5.964999795E-1,-8.146999359E0
9.912982813E0,-4.717499733E0,-2.175000012E-1,-8.219499588E0
9.922993750E0,-4.581199646E0,-8.532999754E-1,-8.268199921E0
9.933004688E0,-4.779200077E0,-1.165699959E0,-8.619099617E0
9.942984375E0,-5.465799809E0,-1.335699916E0,-9.405399323E0
9.952996875E0,-6.004999638E0,-1.382699966E0,-1.058209991E1
9.963007813E0,-6.586499691E0,-1.459900022E0,-1.152339935E1
9.972987500E0,-7.293699741E0,-1.461899996E0,-1.211599922E1
9.982998438E0,-8.248899460E0,-1.471899986E0,-1.207450008E1
9.993009375E0,-9.110699654E0,-1.667899966E0,-1.169889927E1
1.000298906E1,-9.115300179E0,-2.035599947E0,-1.120189953E1
1.001300000E1,-9.235899925E0,-2.279000044E0,-9.911199570E0
1.002301094E1,-8.353400230E0,-2.262799978E0,-8.122699738E0
1.003299062E1,-6.787799835E0,-2.350399971E0,-5.834799767E0
1.004300312E1,-4.494999886E0,-2.139299870E0,-3.229899883E0
1.005298125E1,-2.151700020E0,-1.405099988E0,2.477999926E-1
1.006299219E1,-8.348000050E-1,3.084999919E-1,4.926300049E0
1.007300469E1,7.449999452E-2,1.834800005E0,1.130210018E1
1.008298438E1,3.032999933E-1,2.853799820E0,1.888519859E1
1.009299375E1,-6.031999588E-1,5.269299984E0,2.428839874E1
1.010300625E1,-1.078799963E0,8.566699982E0,2.423929977E1
1.011298594E1,1.472999901E-1,1.133679962E1,2.007259941E1
1.012299688E1,3.342099905E0,1.318159962E1,1.637529945E1
1.013300781E1,8.344299316E0,1.343120003E1,1.517469978E1
1.014298750E1,1.295149994E1,1.139470005E1,1.593699932E1
1.015300000E1,1.386639977E1,8.499099731E0,1.559229946E1
1.016301094E1,1.150489998E1,5.012099743E0,1.270149994E1
1.017299062E1,8.203000069E0,1.769299984E0,9.129499435E0
1.018300156E1,4.409800053E0,-9.498999715E-1,6.177499771E0
1.019301250E1,1.363799930E0,-2.678699970E0,3.828899860E0
1.020299219E1,-5.802999735E-1,-3.538800001E0,1.764400005E0
1.021300312E1,-4.257999957E-1,-4.439099789E0,-2.964999974E-1
1.022298281E1,8.910999894E-1,-5.380799770E0,-2.318699837E0
1.023299375E1,2.797699928E0,-6.360300064E0,-3.796299934E0
1.024300469E1,4.318900108E0,-7.520899773E0,-4.497600079E0
1.025298594E1,4.904599667E0,-9.266300201E0,-4.195799828E0
1.026299688E1,5.061599731E0,-1.169649982E1,-3.639400005E0
1.027300781E1,4.123899937E0,-1.363849926E1,-3.757499933E0
1.028298750E1,3.801999807E0,-1.427429962E1,-5.931900024E0
1.029299844E1,3.820400000E0,-1.389629936E1,-8.701299667E0
1.030300938E1,3.864699841E0,-1.309899998E1,-1.124030018E1
1.031298906E1,4.133399963E0,-1.164349937E1,-1.279969978E1
1.032300000E1,4.476999760E0,-9.863599777E0,-1.347809982E1
1.033301094E1,4.641699791E0,-8.277500153E0,-1.312819958E1
1.034299062E1,4.138000011E0,-6.863299847E0,-1.145459938E1
1.035300312E1,3.326900005E0,-5.591000080E0,-9.154899597E0
1.036298125E1,2.314399958E0,-4.687999725E0,-6.769599915E0
1.037299219E1,1.159600019E0,-3.947799921E0,-4.697299957E0
1.038300469E1,2.296999991E-1,-2.591099977E0,-3.881399870E0
1.039298438E1,-6.991999745E-1,-1.334999919E0,-3.075199842E0
1.040299531E1,-1.319100022E0,2.345999926E-1,-2.449199915E0
1.041300625E1,-1.210799932E0,1.740199924E0,-2.111500025E0
1.042298594E1,-4.870999753E-1,2.980700016E0,-9.431999922E-1
1.043299688E1,5.551999807E-1,3.618399858E0,1.595600009E0
1.044300938E1,1.389299989E0,4.009599686E0,4.986799717E0
1.045298750E1,2.023900032E0,4.297999859E0,8.437399864E0
1.046300000E1,1.038999915E0,5.128599644E0,1.116349983E1
1.047301094E1,-7.088999748E-1,6.819599628E0,1.409689999E1
1.048298906E1,-1.192299962E0,1.043719959E1,1.818099976E1
1.049300156E1,6.557999849E-1,1.410129929E1,2.370279884E1
1.050301250E1,3.529399872E0,1.509789944E1,2.822139931E1
1.051299219E1,4.353799820E0,1.322200012E1,3.008339882E1
1.052300312E1,3.300299883E0,1.032870007E1,3.072859955E1
1.053298281E1,8.176999688E-1,7.289099693E0,2.966009903E1
1.054299375E1,-1.388599992E0,5.865299702E0,2.534429932E1
1.055300625E1,-3.044899940E0,5.691999912E0,1.883329964E1
1.056298594E1,-4.575500011E0,6.043200016E0,1.245659924E1
1.057299531E1,-5.573100090E0,5.865999699E0,8.036899567E0
1.058300781E1,-6.187900066E0,5.043699741E0,5.483500004E0
1.059298594E1,-6.824199677E0,3.879899979E0,2.951499939E0
1.060299844E1,-6.790899754E0,2.824199915E0,-1.841999888E-1
1.061300938E1,-5.830899715E0,1.584800005E0,-3.803999901E0
1.062298906E1,-4.459399700E0,3.463999927E-1,-7.046399593E0
1.063300156E1,-3.133199930E0,-9.515999556E-1,-9.216599464E0
1.064301250E1,-1.965599895E0,-1.846399903E0,-1.012059975E1
1.065299219E1,-1.062199950E0,-2.181699991E0,-1.042969990E1
1.066300156E1,-8.987999558E-1,-1.886799932E0,-1.030729961E1
1.067298281E1,-1.564000010E0,-1.325699925E0,-1.038409996E1
1.068299219E1,-2.687099934E0,-4.429000020E-1,-1.038099957E1
1.069300469E1,-4.066999912E0,4.751999974E-1,-1.056559944E1
1.070298438E1,-5.118000031E0,1.342800021E0,-1.100710011E1
1.071299531E1,-5.800999641E0,1.939899921E0,-1.161950016E1
1.072300625E1,-6.293200016E0,1.942299962E0,-1.158389950E1
1.073298750E1,-7.282599926E0,2.134599924E0,-1.021150017E1
1.074299688E1,-8.615399361E0,2.659199953E0,-8.353199959E0
1.075300938E1,-8.618299484E0,2.915799856E0,-6.656099796E0
1.076298906E1,-8.510799408E0,3.454200029E0,-5.914000034E0
1.077300000E1,-7.696899891E0,2.980499983E0,-5.286200047E0
1.078301094E1,-7.144599915E0,2.013499975E0,-4.623499870E0
1.079299062E1,-6.898799896E0,1.009099960E0,-3.930799961E0
1.080300156E1,-4.963299751E0,2.742999792E-1,-4.393899918E0
1.081298125E1,-4.867999852E-1,-9.669999778E-2,-5.544399738E0
1.082299219E1,4.337800026E0,1.441999972E-1,-3.962799788E0
1.083300469E1,1.019359970E1,1.634099960E0,1.959899902E0
1.084298281E1,1.590579987E1,5.532499790E0,8.674699783E0
1.085299375E1,1.755699921E1,1.085739994E1,9.703800201E0
1.086300625E1,1.753540039E1,1.445699978E1,8.324799538E0
1.087298594E1,1.930150032E1,1.515489960E1,1.332839966E1
1.088299688E1,2.174869919E1,1.251979923E1,2.206130028E1
1.089300781E1,2.258249855E1,7.932199955E0,2.633039856E1
1.090298750E1,2.028949928E1,3.972999811E0,2.540880013E1
1.091299844E1,1.586569977E1,8.743000031E-1,2.189649963E1
1.092300938E1,1.118159962E1,-1.758099914E0,1.715390015E1
1.093299062E1,6.760499954E0,-3.387300014E0,1.208689976E1
1.094300000E1,3.671000004E0,-4.319999695E0,7.062599659E0
1.095301094E1,2.373100042E0,-5.269700050E0,3.141499996E0
1.096299063E1,2.216699839E0,-6.406599998E0,2.608999908E-1
1.097300312E1,3.332000017E0,-7.638399601E0,-1.226899981E0
1.098298125E1,6.092199802E0,-9.092299461E0,-9.635999799E-1
1.099299375E1,7.972599983E0,-9.736399651E0,7.027999759E-1
1.100300469E1,7.535599709E0,-1.049510002E1,1.611899972E0
1.101298438E1,5.369699955E0,-1.182339954E1,1.932799935E0
1.102299531E1,3.185400009E0,-1.299609947E1,2.372799873E0
1.103300625E1,2.170599937E0,-1.398600006E1,2.209399939E0
1.104298594E1,1.708599925E0,-1.508239937E1,1.366000026E-1
1.105299688E1,1.057600021E0,-1.521799946E1,-3.041899920E0
1.106300781E1,-8.009999990E-2,-1.472369957E1,-6.082399845E0
1.107298750E1,-1.255900025E0,-1.394619942E1,-7.768999577E0
1.108300000E1,-2.262399912E0,-1.320049953E1,-7.546799660E0
1.109301094E1,-3.095299959E0,-1.246549988E1,-5.391999722E0
1.110299062E1,-3.259399891E0,-1.153559971E1,-3.105799913E0
1.111300312E1,-2.148999929E0,-1.022649956E1,-1.079200029E0
1.112298125E1,3.538999856E-1,-8.746500015E0,1.172999963E-1
1.113299219E1,2.199599981E0,-7.535599709E0,4.120000005E-1
1.114300312E1,5.870500088E0,-6.236000061E0,5.882999897E-1
1.115298281E1,9.317399979E0,-5.065599918E0,9.998999834E-1
1.116299375E1,1.090829945E1,-3.999599934E0,2.385699987E0
1.117300625E1,1.225990009E1,-2.963899851E0,5.151899815E0
1.118298594E1,1.287089920E1,-1.545099974E0,7.559199810E0
1.119299531E1,1.145079994E1,1.277599931E0,9.713099480E0
1.120300781E1,1.022769928E1,5.606800079E0,1.550249958E1
1.121298750E1,9.236100197E0,1.010809994E1,2.405200005E1
1.122299844E1,7.820299625E0,1.218769932E1,3.254179764E1
1.123300938E1,7.231199741E0,1.119709969E1,3.801020050E1
1.124298906E1,7.517299652E0,1.044600010E1,3.655709839E1
1.125300000E1,7.411499977E0,1.102180004E1,2.884789848E1
1.126301250E1,6.340299606E0,1.207089996E1,1.929249954E1
1.127299219E1,3.641699791E0,1.295209980E1,1.176419926E1
1.128300312E1,-7.678999901E-1,1.338169956E1,6.794499874E0
1.129298281E1,-5.271499634E0,1.318729973E1,3.369899988E0
1.130299375E1,-9.224299431E0,1.254059982E1,6.669999957E-1
1.131300469E1,-1.155550003E1,1.130799961E1,-2.030999899E0
1.132298438E1,-1.199749947E1,9.704999924E0,-4.812500000E0
1.133299531E1,-1.044299984E1,7.972399712E0,-7.067599773E0
1.134300625E1,-8.676300049E0,6.263899803E0,-8.559499741E0
1.135298750E1,-7.681299686E0,4.233599663E0,-8.019700050E0
1.136299688E1,-6.416199684E0,2.623800039E0,-6.797699928E0
1.137300938E1,-4.592299938E0,1.848299980E0,-6.626199722E0
1.138298906E1,-2.465100050E0,1.574499965E0,-7.962599754E0
1.139300000E1,-8.946999907E-1,1.705399990E0,-1.038910007E1
1.140301094E1,-4.095999897E-1,1.643299937E0,-1.323989964E1
1.141299062E1,-8.253999949E-1,1.038499951E0,-1.540439987E1
1.142300156E1,-1.998099923E0,-1.040999964E-1,-1.578829956E1
1.143300469E1,-3.628899813E0,-1.561199903E0,-1.463779926E1
1.144299219E1,-5.121799946E0,-2.501699924E0,-1.215390015E1
1.145300469E1,-6.073499680E0,-3.364199877E0,-9.616799355E0
1.146298438E1,-6.069999695E0,-4.205699921E0,-7.532599926E0
1.147299531E1,-5.533799648E0,-5.096699715E0,-5.806999683E0
1.148300625E1,-3.788699865E0,-5.915799618E0,-4.437299728E0
1.149298438E1,-1.834599972E0,-6.787099838E0,-3.433899879E0
1.150299688E1,5.939999968E-2,-7.429899693E0,-2.875799894E0
1.151300781E1,1.270599961E0,-7.674099922E0,-1.902199984E0
1.152298750E1,2.472300053E0,-7.607299805E0,-1.090899944E0
1.153299844E1,2.752899885E0,-7.217799664E0,7.299999893E-2
1.154300938E1,2.738800049E0,-6.943299770E0,1.825099945E0
1.155298906E1,2.547199965E0,-6.832699776E0,3.978799820E0
1.156300000E1,2.710299969E0,-6.240699768E0,5.425399780E0
1.157301094E1,2.898099899E0,-5.221099854E0,5.949100018E0
1.158299062E1,2.709499836E0,-3.601099968E0,5.764100075E0
1.159300313E1,1.757999897E0,-2.025099993E0,5.151000023E0
1.160298281E1,-2.727999985E-1,-1.080500007E0,3.963499784E0
1.161299375E1,-2.171499968E0,-2.593999803E-1,2.915099859E0
1.162300469E1,-1.812099934E0,-1.683000028E-1,3.631500006E0
1.163298594E1,9.071999788E-1,-8.508999944E-1,5.692199707E0
1.164299531E1,3.651700020E0,-1.873899937E0,7.958099842E0
1.165300625E1,5.791199684E0,-2.822700024E0,9.020400047E0
1.166298750E1,7.137699604E0,-3.304499865E0,7.830099583E0
1.167299688E1,7.542199612E0,-3.398799896E0,5.406799793E0
1.168300938E1,7.172899723E0,-3.356799841E0,2.894500017E0
1.169298906E1,6.894399643E0,-3.451499939E0,1.115800023E0
1.170300000E1,6.633100033E0,-3.528899908E0,-2.460999936E-1
1.171301250E1,5.856699944E0,-3.698400021E0,-8.695999980E-1
1.172299063E1,4.789700031E0,-3.828399897E0,-1.519199967E0
1.173300156E1,3.977799892E0,-4.084599972E0,-2.145200014E0
1.174298125E1,3.444700003E0,-4.554999828E0,-2.457000017E0
1.175299219E1,2.645699978E0,-5.137700081E0,-2.432199955E0
1.176300469E1,2.753700018E0,-5.566599846E0,-2.293599844E0
1.177298438E1,3.168699980E0,-5.854099751E0,-2.581799984E0
1.178299375E1,3.727699995E0,-5.783400059E0,-3.319199800E0
1.179300625E1,4.258699894E0,-5.688999653E0,-4.727399826E0
1.180298438E1,4.560599804E0,-5.428599834E0,-6.363899708E0
1.181299531E1,4.697700024E0,-4.785500050E0,-7.723699570E0
1.182300781E1,4.496599674E0,-4.416500092E0,-8.621600151E0
1.183298906E1,3.622599840E0,-3.671399832E0,-9.139599800E0
1.184299844E1,1.895099998E0,-3.345700026E0,-8.966300011E0
1.185301250E1,7.290999889E-1,-3.436699867E0,-8.381299973E0
1.186298906E1,-2.687000036E-1,-3.266599894E0,-6.951799870E0
1.187300156E1,-7.240999937E-1,-3.131799936E0,-4.631700039E0
1.188301250E1,-6.904999614E-1,-2.775499821E0,-2.203399897E0
1.189299063E1,-6.553999782E-1,-1.990700006E0,-9.817999601E-1
1.190300313E1,3.989999890E-1,6.819999963E-2,-1.470699906E0
1.191298281E1,-3.975999951E-1,2.829699993E0,-1.759199977E0
1.192299375E1,-1.881500006E0,5.249499798E0,4.384799957E0
1.193300469E1,-3.412199974E0,8.641499519E0,1.890950012E1
1.194298438E1,-3.715199947E0,1.134759998E1,3.599430084E1
1.195299688E1,-9.329999983E-2,1.024479961E1,4.706319809E1
1.196300781E1,4.025700092E0,8.124300003E0,4.751499939E1
1.197298594E1,5.062299728E0,8.030300140E0,3.803249741E1
1.198299844E1,2.874699831E0,9.912499428E0,2.623719978E1
1.199300938E1,-8.147999644E-1,1.171369934E1,1.858409882E1
1.200298906E1,-3.680799961E0,1.231649971E1,1.385369968E1
1.201300000E1,-5.868299961E0,1.227810001E1,9.061599731E0
1.202301094E1,-7.960700035E0,1.156250000E1,2.677799940E0
1.203299062E1,-9.871500015E0,1.032919979E1,-4.709399700E0
1.204300156E1,-9.854999542E0,8.701000214E0,-1.113219929E1
1.205298281E1,-7.365900040E0,7.538300037E0,-1.602980042E1
1.206299219E1,-3.185799837E0,6.466099739E0,-1.873569870E1
1.207300469E1,-1.176999956E-1,4.303400040E0,-1.860599899E1
1.208298281E1,9.695000052E-1,1.791599989E0,-1.613940048E1
1.209299531E1,8.297999501E-1,-5.230000019E-1,-1.228539944E1
1.210300625E1,1.163999960E-1,-2.007400036E0,-8.842700005E0
1.211298594E1,-6.262999773E-1,-3.079299927E0,-6.976999760E0
1.212299688E1,-1.318300009E0,-3.740299940E0,-7.414999962E0
1.213300781E1,-2.180899858E0,-4.010699749E0,-9.166199684E0
1.214298750E1,-2.744299889E0,-3.883099794E0,-1.124989986E1
1.215299844E1,-3.054999828E0,-3.465799809E0,-1.243559933E1
1.216301094E1,-2.783200026E0,-3.161000013E0,-1.292939949E1
1.217298906E1,-2.049700022E0,-2.776499987E0,-1.303800011E1
1.218300000E1,-1.149600029E0,-2.565299988E0,-1.215139961E1
1.219301250E1,-8.236999512E-1,-2.575799942E0,-1.066919994E1
1.220299219E1,-1.105199933E0,-3.105899811E0,-8.834099770E0
1.221300312E1,-8.745999932E-1,-4.103600025E0,-6.595599651E0
1.222298281E1,-7.231000066E-1,-4.954199791E0,-4.257100105E0
1.223299375E1,-1.310299993E0,-5.124799728E0,-1.112499952E0
1.224300469E1,-2.243999958E0,-4.272699833E0,3.263799906E0
1.225298438E1,-3.197099924E0,-2.714900017E0,8.691800117E0
1.226299688E1,-3.873299837E0,-1.630699992E0,1.439190006E1
1.227300781E1,-3.894199848E0,-1.009899974E0,1.668739891E1
1.228298750E1,-3.645499945E0,3.445999920E-1,1.919890022E1
1.229299688E1,-2.973999977E0,2.332599878E0,1.912159920E1
1.230300938E1,-2.788899899E0,5.517600060E0,1.740219879E1
1.231298906E1,-3.205299854E0,8.793499947E0,1.545839977E1
1.232300000E1,-3.116600037E0,1.053429985E1,1.521129990E1
1.233301094E1,-2.336799860E0,1.004229927E1,1.741329956E1
1.234299062E1,-1.407799959E0,8.517799377E0,1.911439896E1
1.235300156E1,-7.680000067E-1,6.868299961E0,1.776149940E1
1.236298125E1,-1.388999969E-1,5.044899940E0,1.404749966E1
1.237299219E1,4.993999898E-1,3.217299938E0,9.790999413E0
1.238300469E1,1.047299981E0,1.199699998E0,6.508100033E0
1.239298438E1,1.463499904E0,-5.485000014E-1,4.491300106E0
1.240299531E1,2.177199841E0,-1.878600001E0,3.003899813E0
1.241300625E1,3.272399902E0,-2.540199995E0,1.362100005E0
1.242298594E1,4.219900131E0,-3.125799894E0,-7.762999535E-1
1.243299844E1,5.336699963E0,-4.026700020E0,-2.549799919E0
1.244300781E1,6.141299725E0,-5.152499676E0,-3.460199833E0
1.245298750E1,7.226799965E0,-6.528399944E0,-3.368299961E0
1.246300000E1,9.116299629E0,-7.676599979E0,-2.358799934E0
1.247300938E1,1.120189953E1,-8.175000191E0,-1.520799994E0
1.248299063E1,1.273899937E1,-8.479999542E0,-2.400499821E0
1.249300156E1,1.323909950E1,-9.031700134E0,-5.099799633E0
1.250301250E1,1.317140007E1,-9.359000206E0,-7.808199883E0
1.251299219E1,1.229889965E1,-9.621299744E0,-9.575399399E0
1.252300312E1,1.105499935E1,-9.781499863E0,-1.017179966E1
1.253298281E1,9.249799728E0,-9.811800003E0,-1.002699947E1
1.254299375E1,6.988199711E0,-9.427399635E0,-9.344499588E0
1.255300625E1,4.815000057E0,-8.639599800E0,-8.398200035E0
1.256298438E1,2.389699936E0,-7.345399857E0,-7.200999737E0
1.257299531E1,-5.020999908E-1,-5.983699799E0,-5.528999805E0
1.258300781E1,-2.617300034E0,-4.535999775E0,-4.043699741E0
1.259298750E1,-3.508399963E0,-2.900399923E0,-2.869499922E0
1.260299844E1,-3.592799902E0,-8.337999582E-1,-1.454499960E0
1.261300938E1,-3.127699852E0,1.148999929E0,-3.279999793E-1
1.262298906E1,-3.046099901E0,3.383100033E0,2.075999975E-1
1.263300000E1,-4.238999844E0,6.119400024E0,6.308999658E-1
1.264301094E1,-6.935499668E0,9.546400070E0,2.588099957E0
1.265299063E1,-8.564899445E0,1.116919994E1,4.245100021E0
1.266300313E1,-1.193120003E1,1.376179981E1,1.017119980E1
1.267298281E1,-1.331599998E1,1.485509968E1,2.138049889E1
1.268299375E1,-1.056919956E1,1.418589973E1,3.238599777E1
1.269300469E1,-5.612899780E0,1.210619926E1,3.559629822E1
1.270298438E1,6.489999592E-2,1.026799965E1,3.005699921E1
1.271299531E1,4.634599686E0,9.987299919E0,1.952289963E1
1.272300625E1,5.659699917E0,1.024339962E1,1.058799934E1
1.273298594E1,4.109299660E0,9.528100014E0,5.970999718E0
1.274299688E1,1.294999957E0,8.173399925E0,3.845599890E0
1.275300781E1,-1.729699969E0,6.589599609E0,2.334300041E0
1.276298906E1,-4.461899757E0,5.196000099E0,-1.074999943E-1
1.277300000E1,-6.047800064E0,3.748499870E0,-3.148599863E0
1.278301094E1,-6.528100014E0,2.852799892E0,-6.305699825E0
1.279299063E1,-5.937299728E0,1.960999966E0,-9.070599556E0
1.280300156E1,-4.637700081E0,1.189599991E0,-1.121509933E1
1.281301250E1,-2.918099880E0,7.319999933E-1,-1.266629982E1
1.282299219E1,-1.490799904E0,2.671000063E-1,-1.358290005E1
1.283300313E1,-2.915000021E-1,-2.052999884E-1,-1.432139969E1
1.284298281E1,4.508000016E-1,-1.358999908E-1,-1.449009991E1
1.285299375E1,5.026000142E-1,-2.575999796E-1,-1.452789974E1
1.286300469E1,1.319999993E-2,-3.252999783E-1,-1.404889965E1
1.287298594E1,-7.073999643E-1,-3.906999826E-1,-1.291589928E1
1.288299531E1,-1.500699997E0,-2.056999952E-1,-1.165320015E1
1.289300781E1,-1.842499971E0,2.149000019E-1,-1.037500000E1
1.290298750E1,-1.682699919E0,3.594000041E-1,-9.953199387E0
1.291299844E1,-1.297999978E0,3.492999971E-1,-1.012639999E1
1.292300938E1,-6.377999783E-1,-4.748999774E-1,-1.028520012E1
1.293298906E1,-1.032999977E-1,-1.240800023E0,-8.605400085E0
1.294300000E1,2.026000023E-1,-2.503799915E0,-5.223700047E0
1.295301094E1,9.789999574E-2,-3.602299929E0,-9.833999872E-1
1.296299063E1,-2.514999807E-1,-4.320799828E0,3.252300024E0
1.297300312E1,-4.426999986E-1,-5.346099854E0,7.315299988E0
1.298298125E1,-7.462999821E-1,-6.297299862E0,1.140289974E1
1.299299219E1,-1.779099941E0,-6.557299614E0,1.492739964E1
1.300300469E1,-3.237499952E0,-5.748399734E0,1.726609993E1
1.301298438E1,-5.515899658E0,-3.746999979E0,1.738469887E1
1.302299531E1,-7.994299889E0,-1.380499959E0,1.551639938E1
1.303300781E1,-8.921299934E0,4.329999909E-2,1.368269920E1
1.304298594E1,-1.093550014E1,3.282999992E0,1.169279957E1
1.305299688E1,-1.086240005E1,6.058899879E0,1.322709942E1
1.306300781E1,-6.028699875E0,6.662399769E0,1.633189964E1
1.307298750E1,1.352800012E0,6.389100075E0,1.782009888E1
1.308300000E1,6.983899593E0,6.192599773E0,1.504169941E1
1.309301094E1,8.972999573E0,5.423500061E0,9.678299904E0
1.310299062E1,6.806399822E0,4.192999840E0,7.031599998E0
1.311300156E1,4.589200020E0,1.754799962E0,9.190499306E0
1.312301250E1,3.110100031E0,-1.037999988E0,1.184169960E1
1.313299219E1,2.661299944E0,-2.951400042E0,1.169369984E1
1.314300313E1,2.585999966E0,-3.831199884E0,9.047399521E0
1.315298438E1,2.959199905E0,-3.776199818E0,5.198599815E0
1.316299375E1,4.346899986E0,-3.642599821E0,1.149600029E0
1.317300469E1,5.653599739E0,-3.311399937E0,-1.927899957E0
1.318298594E1,6.686800003E0,-3.275300026E0,-3.535199881E0
1.319299531E1,7.364500046E0,-3.645200014E0,-3.481599808E0
1.320300781E1,7.101099968E0,-4.024399757E0,-2.279599905E0
1.321298750E1,6.096399784E0,-4.414000034E0,-9.881999493E-1
1.322299844E1,5.327600002E0,-4.991300106E0,-8.568999767E-1
1.323300938E1,5.321700096E0,-4.960899830E0,-1.918699980E0
1.324298906E1,5.614299774E0,-4.556399822E0,-3.314299822E0
1.325300000E1,6.516499996E0,-3.950599909E0,-4.579400063E0
1.326301250E1,7.736799717E0,-2.714699984E0,-5.088900089E0
1.327299219E1,9.504099846E0,-8.288999796E-1,-5.411200047E0
1.328300312E1,1.035729980E1,1.524099946E0,-5.348799706E0
1.329298125E1,7.941699982E0,4.607999802E0,-6.072999954E0
1.330299375E1,3.778100014E0,7.776599884E0,-6.563099861E0
1.331300469E1,-1.338400006E0,1.099049950E1,-2.850899935E0
1.332298438E1,-5.267699718E0,1.345459938E1,5.880499840E0
1.333299531E1,-6.694499969E0,1.543409920E1,1.686489868E1
1.334300625E1,-6.072799683E0,1.648600006E1,2.192779922E1
1.335298594E1,-6.524799824E0,1.733259964E1,1.889649963E1
1.336299688E1,-6.149600029E0,1.778120041E1,1.535359955E1
1.337300938E1,-4.610599995E0,1.665550041E1,1.619519997E1
1.338298750E1,-4.225599766E0,1.415649986E1,1.727269936E1
1.339300000E1,-4.278199673E0,1.097189999E1,1.499479961E1
1.340301094E1,-4.640699863E0,7.376899719E0,1.017579937E1
1.341299062E1,-4.691899776E0,5.515299797E0,7.284800053E0
1.342300156E1,-4.993799686E0,1.388999939E0,2.202899933E0
1.343301250E1,-4.892600060E0,-3.090199947E0,-2.235899925E0
1.344299219E1,-3.291299820E0,-7.124699593E0,-6.163899899E0
1.345300312E1,2.876999974E-1,-9.878299713E0,-9.515399933E0
1.346298281E1,3.898299932E0,-1.117049980E1,-1.172909927E1
1.347299375E1,5.484699726E0,-1.178189945E1,-1.021609974E1
1.348300625E1,4.526199818E0,-1.179339981E1,-4.265899658E0
1.349298438E1,3.663299799E0,-1.216289997E1,1.513700008E0
1.350299531E1,2.522899866E0,-1.243209934E1,3.359899998E0
1.351300781E1,2.031999975E-1,-1.114340019E1,1.951599956E0
1.352298594E1,-2.059099913E0,-8.769100189E0,-1.973999977E0
1.353299844E1,-3.131099939E0,-5.969399929E0,-5.701699734E0
1.354300938E1,-2.860800028E0,-3.319299936E0,-7.921099663E0
1.355298906E1,-6.951000094E-1,-1.760100007E0,-8.822400093E0
1.356300000E1,1.327299953E0,-1.049899936E0,-9.811499596E0
1.357301094E1,2.196399927E0,-1.027699947E0,-1.179150009E1
1.358299219E1,1.724699974E0,-1.579599977E0,-1.395199966E1
1.359300313E1,1.056999922E0,-1.919499993E0,-1.490059948E1
1.360298281E1,-1.611000001E-1,-2.266099930E0,-1.437739944E1
1.361299375E1,-1.341899991E0,-2.488600016E0,-1.260120010E1
1.362300469E1,-1.941499949E0,-2.484999895E0,-9.852699280E0
1.363300000E1,-2.334300041E0,-1.620899916E0,-6.992499828E0
1.364299375E1,-3.037499905E0,-3.319000006E-1,-4.702300072E0
1.365300625E1,-4.005099773E0,1.312399983E0,-3.712099791E0
1.366298594E1,-4.696899891E0,3.493399858E0,-3.477999926E0
1.367299688E1,-4.554199696E0,5.410999775E0,-3.324399948E0
1.368300938E1,-3.764299870E0,5.914999962E0,-3.231599808E0
1.369298906E1,-2.441900015E0,5.057499886E0,-2.661900043E0
1.370300000E1,-6.144999862E-1,4.052899837E0,-1.222700000E0
1.371301094E1,1.027400017E0,3.339099884E0,-1.608999968E-1
1.372299063E1,1.744499922E0,3.081399918E0,2.818000019E-1
1.373300156E1,1.287299991E0,2.790499926E0,4.025000036E-1
1.374298125E1,5.059999824E-1,2.225600004E0,1.177399993E0
1.375299219E1,-3.880999982E-1,1.877900004E0,3.603600025E0
1.376300469E1,-9.047999978E-1,2.042199850E0,7.288199902E0
1.377298281E1,-6.455000043E-1,2.637199879E0,1.026620007E1
1.378299375E1,-1.560999900E-1,3.289999962E0,1.151060009E1
1.379300625E1,-3.729999810E-2,3.658599854E0,1.234549999E1
1.380298594E1,1.509199977E0,3.732999802E0,1.290779972E1
1.381299688E1,3.802399874E0,3.690899849E0,1.445219994E1
1.382300781E1,5.263099670E0,2.954399824E0,1.622869873E1
1.383298750E1,6.222899914E0,2.011100054E0,1.821459961E1
1.384299844E1,7.173199654E0,5.604000092E-1,1.913659859E1
1.385300938E1,7.773099899E0,-8.650999665E-1,1.721489906E1
1.386298906E1,7.955399990E0,-1.896999955E0,1.378329945E1
1.387300156E1,7.579199791E0,-2.723099947E0,1.051539993E1
1.388301250E1,6.993899822E0,-3.209199905E0,6.847699642E0
1.389299219E1,6.374700069E0,-3.657499790E0,2.928099871E0
1.390300313E1,5.704099655E0,-3.856799841E0,-4.260999858E-1
1.391298281E1,4.635900021E0,-4.094399929E0,-2.439699888E0
1.392299375E1,3.504799843E0,-4.269099712E0,-3.161099911E0
1.393300469E1,2.370699883E0,-4.191199780E0,-3.453799963E0
1.394298438E1,1.398999929E0,-4.030200005E0,-3.708999872E0
1.395299531E1,7.427999973E-1,-3.676399946E0,-4.357399940E0
1.396300625E1,2.342000008E-1,-3.326599836E0,-5.555500031E0
1.397298594E1,-1.877999902E-1,-3.045699835E0,-6.598299980E0
1.398299688E1,-4.378999770E-1,-2.788599968E0,-7.442699909E0
1.399300938E1,-1.066599965E0,-2.596699953E0,-7.772799969E0
1.400298906E1,-1.347199917E0,-2.470299959E0,-7.700899601E0
1.401300000E1,-1.550599933E0,-2.671099901E0,-7.109799862E0
1.402301094E1,-1.847499967E0,-2.492899895E0,-6.707299709E0
1.403299062E1,-2.030799866E0,-2.278899908E0,-6.416499615E0
1.404300156E1,-2.309599876E0,-2.035099983E0,-6.543599606E0
1.405298125E1,-2.489399910E0,-1.576999903E0,-6.938299656E0
1.406299219E1,-2.444399834E0,-1.138399959E0,-7.328599930E0
1.407300313E1,-2.365799904E0,-6.211000085E-1,-7.662399769E0
1.408298438E1,-2.019899845E0,-6.650000066E-2,-7.687799931E0
1.409299375E1,-1.870599985E0,7.990999818E-1,-7.327099800E0
1.410300625E1,-1.916499972E0,1.525499940E0,-6.717099667E0
1.411298594E1,-2.278300047E0,2.287499905E0,-6.509599686E0
1.412299531E1,-2.575299978E0,2.756700039E0,-6.275799751E0
1.413300781E1,-2.872799873E0,2.894299984E0,-5.656399727E0
1.414298750E1,-2.881999969E0,2.658299923E0,-4.958799839E0
1.415299844E1,-2.710599899E0,2.729099989E0,-4.458799839E0
1.416300938E1,-2.575799942E0,2.436499834E0,-3.909899950E0
1.417298906E1,-1.600099921E0,2.118700027E0,-2.992899895E0
1.418300000E1,-1.842899919E0,1.611999989E0,-2.443500042E0
1.419301094E1,-1.885599971E0,1.215799928E0,-1.327799916E0
1.420299063E1,-1.744199991E0,1.130800009E0,-9.387999773E-1
1.421300156E1,-1.454699993E0,1.432600021E0,-1.806499958E0
1.422298281E1,-9.978999496E-1,1.476999998E0,-2.751999855E0
1.423299375E1,-6.280999780E-1,1.697799921E0,-2.626299858E0
1.424300469E1,4.690000042E-2,1.627399921E0,-1.642999947E-1
1.425298438E1,7.829999924E-1,1.388899922E0,4.423799992E0
1.426299531E1,1.480499983E0,1.114899993E0,1.066599941E1
1.427300781E1,2.425799847E0,4.893999994E-1,1.624099922E1
1.428298594E1,3.035499811E0,-6.618999839E-1,1.918449974E1
1.429299688E1,3.886199951E0,-1.395399928E0,1.851679993E1
1.430300938E1,5.076999664E0,-1.584299922E0,1.511089993E1
1.431298906E1,5.667799950E0,-9.034000039E-1,1.083969975E1
1.432300000E1,5.459399700E0,-8.999999613E-3,6.785099983E0
1.433301094E1,4.603600025E0,4.589999914E-1,3.595099926E0
1.434299062E1,3.345000029E0,1.025900006E0,1.419199944E0
1.435300156E1,2.292599916E0,1.229799986E0,-7.971000075E-1
1.436298125E1,1.014099956E0,1.391999960E0,-2.976899862E0
1.437299219E1,-6.239999831E-2,1.318300009E0,-4.923199654E0
1.438300312E1,-7.910999656E-1,1.276199937E0,-6.355399609E0
1.439298438E1,-1.363099933E0,1.182299972E0,-7.156499863E0
1.440299375E1,-1.700399995E0,1.320599914E0,-7.524499893E0
1.441300625E1,-1.624099970E0,1.180799961E0,-7.962399960E0
1.442298438E1,-1.505199909E0,1.034099936E0,-8.281299591E0
1.443299531E1,-1.605199933E0,8.404999971E-1,-8.705399513E0
1.444300781E1,-2.110800028E0,3.313999772E-1,-9.004199982E0
1.445298750E1,-2.766599894E0,-2.397999913E-1,-8.956299782E0
1.446299844E1,-3.316799879E0,-6.171000004E-1,-8.774099350E0
1.447301094E1,-3.903100014E0,-1.001199961E0,-8.542200089E0
1.448298906E1,-4.840300083E0,-1.166899920E0,-8.413899422E0
1.449300156E1,-5.289199829E0,-1.037299991E0,-7.894799709E0
1.450301094E1,-5.481299877E0,-6.981999874E-1,-7.504600048E0
1.451299219E1,-5.315599918E0,-3.195999861E-1,-7.711199760E0
1.452300312E1,-5.309499741E0,1.740000024E-2,-8.706600189E0
1.453298281E1,-5.644099712E0,-1.651999950E-1,-9.948299408E0
1.454299375E1,-6.279299736E0,-4.562999904E-1,-1.072989941E1
1.455300469E1,-6.604099751E0,-1.483299971E0,-1.093130016E1
1.456298438E1,-7.219199657E0,-2.856799841E0,-9.691699982E0
1.457299531E1,-7.529699802E0,-3.547099829E0,-7.476199627E0
1.458300625E1,-6.771299839E0,-3.853699923E0,-4.714799881E0
1.459298750E1,-5.666199684E0,-4.119299889E0,-2.218699932E0
1.460300469E1,-4.838399887E0,-4.048699856E0,-9.476999640E-1
1.461300938E1,-3.554299831E0,-3.508599997E0,-3.215999901E-1
1.462298906E1,-1.738399982E0,-2.328399897E0,-1.541000009E-1
1.463300000E1,4.508999884E-1,-7.559999824E-1,-1.237000003E-1
1.464301094E1,2.608899832E0,8.639000058E-1,7.540999651E-1
1.465299063E1,3.471799850E0,2.836799860E0,3.217700005E0
1.466300156E1,2.862799883E0,4.898200035E0,7.672399998E0
1.467298125E1,9.853000045E-1,7.375799656E0,1.317219925E1
1.468299219E1,-6.143000126E-1,1.088939953E1,1.826399994E1
1.469300469E1,-1.246899962E0,1.475149918E1,2.329780006E1
1.470298438E1,1.428699970E0,1.807789993E1,2.758779907E1
1.471299531E1,7.472399712E0,1.818919945E1,2.891539955E1
1.472300625E1,1.534799957E1,1.530069923E1,2.696780014E1
1.473298594E1,2.197410011E1,1.162459946E1,2.308909988E1
1.474299688E1,2.549489975E1,6.930899620E0,1.980539894E1
1.475300781E1,2.552289963E1,8.725000024E-1,1.832149887E1
1.476298906E1,2.209129906E1,-5.530099869E0,1.683160019E1
1.477299844E1,1.578889942E1,-1.069409943E1,1.453909969E1
1.478300938E1,8.922699928E0,-1.403730011E1,1.354649925E1
1.479298906E1,3.984599829E0,-1.490739918E1,1.348589993E1
1.480300000E1,2.194099903E0,-1.397539997E1,1.245119953E1
1.481301250E1,2.879099846E0,-1.253349972E1,1.016809940E1
1.482299063E1,4.907499790E0,-1.104229927E1,8.784999847E0
1.483300313E1,6.849799633E0,-1.043069935E1,8.282599449E0
1.484298281E1,8.796599388E0,-1.053739929E1,7.947000027E0
1.485299375E1,1.017259979E1,-1.111909962E1,6.906799793E0
1.486300469E1,1.057539940E1,-1.201489925E1,5.070099831E0
1.487298438E1,1.015159988E1,-1.282209969E1,3.517199993E0
1.488299531E1,9.494299889E0,-1.361349964E1,1.261600018E0
1.489300625E1,9.407199860E0,-1.380769920E1,-1.489699960E0
1.490298594E1,9.468299866E0,-1.247550011E1,-3.502699852E0
1.491299844E1,9.910999298E0,-1.086719990E1,-4.714799881E0
1.492300938E1,1.004729939E1,-9.395199776E0,-5.068099976E0
1.493298906E1,9.853699684E0,-8.454799652E0,-4.714499950E0
1.494300000E1,8.586699486E0,-6.791999817E0,-3.266799927E0
1.495301094E1,5.349899769E0,-5.499199867E0,-7.726999521E-1
1.496299063E1,1.126199961E0,-4.653299809E0,2.419199944E0
1.497300156E1,-3.847100019E0,-3.704099894E0,4.205899715E0
1.498298281E1,-7.396100044E0,-1.963499904E0,3.843099833E0
1.499299219E1,-8.881099701E0,1.489999890E-1,1.964699984E0
1.500300469E1,-9.587999344E0,3.242100000E0,6.328999996E-1
1.501298438E1,-1.040209961E1,6.988999844E0,-5.446000099E-1
1.502299375E1,-1.212090015E1,1.116739941E1,-2.624799967E0
1.503300625E1,-1.504629993E1,1.547039986E1,-5.241099834E0
1.504298594E1,-1.753979874E1,1.908899879E1,-6.202799797E0
1.505299688E1,-1.969199944E1,2.036109924E1,-3.847599983E0
1.506300781E1,-2.159650040E1,1.890069962E1,2.395000011E-1
1.507298906E1,-2.253820038E1,1.595759964E1,3.046499968E0
1.508299844E1,-2.261569977E1,1.283059978E1,4.232800007E0
1.509300938E1,-2.123779869E1,1.008930016E1,3.098500013E0
1.510298906E1,-1.701459885E1,7.976399899E0,2.400999963E-1
1.511300000E1,-1.073429966E1,6.547800064E0,-3.167500019E0
1.512301094E1,-4.007899761E0,5.425099850E0,-6.156899929E0
1.513299219E1,1.525399923E0,3.771399975E0,-7.824599743E0
1.514300313E1,5.260799885E0,2.293200016E0,-8.662499428E0
1.515298281E1,6.871799946E0,1.129400015E0,-8.919699669E0
1.516299375E1,7.074899673E0,2.556000054E-1,-8.849800110E0
1.517300469E1,6.750599861E0,-9.555999637E-1,-8.172399521E0
1.518298438E1,6.094599724E0,-2.152400017E0,-7.091099739E0
1.519299688E1,5.140899658E0,-2.971099854E0,-5.769700050E0
1.520300625E1,4.121999741E0,-3.338799953E0,-4.545300007E0
1.521298594E1,3.494299889E0,-3.553900003E0,-3.929699898E0
1.522299844E1,3.189399958E0,-3.366400003E0,-4.091099739E0
1.523300938E1,3.341499805E0,-2.936899900E0,-4.859399796E0
1.524298906E1,3.935499907E0,-2.268100023E0,-5.557600021E0
1.525300000E1,4.578899860E0,-1.532899976E0,-6.017399788E0
1.526301250E1,5.014899731E0,-6.076999903E-1,-6.391499996E0
1.527299062E1,4.622499943E0,2.481999993E-1,-6.186100006E0
1.528300156E1,3.748099804E0,8.364999890E-1,-5.303400040E0
1.529298125E1,2.718899965E0,1.499300003E0,-3.975399971E0
1.530299219E1,1.601099968E0,1.756199956E0,-2.226899862E0
1.531300469E1,8.840999603E-1,1.571399927E0,-7.141000032E-1
1.532298281E1,-1.352899909E0,9.923999906E-1,3.222899914E0
1.533299531E1,-4.612400055E0,8.475999832E-1,7.298699856E0
1.534300625E1,-7.435099602E0,7.512999773E-1,1.053359985E1
1.535298594E1,-9.261199951E0,1.437699914E0,1.355719948E1
1.536299688E1,-9.919499397E0,2.875399828E0,1.587500000E1
1.537300781E1,-9.674399376E0,4.638299942E0,1.782569885E1
1.538298750E1,-9.310299873E0,6.162499905E0,1.975489998E1
1.539300000E1,-9.194000244E0,7.493099689E0,2.113729858E1
1.540301094E1,-7.546399593E0,8.026000023E0,2.083519936E1
1.541299062E1,-4.276899815E0,7.538499832E0,1.990329933E1
1.542300156E1,-5.976999998E-1,5.901000023E0,2.024829865E1
1.543301250E1,2.533999920E0,3.879799843E0,2.080570030E1
1.544299219E1,5.002299786E0,9.767999649E-1,1.943770027E1
1.545300312E1,6.220200062E0,-1.786700010E0,1.596840000E1
1.546298281E1,6.214999676E0,-4.010900021E0,1.169149971E1
1.547299375E1,5.699100018E0,-5.182499886E0,7.186499596E0
1.548300469E1,4.948699951E0,-5.605599880E0,3.380899906E0
1.549298594E1,5.047100067E0,-5.782799721E0,5.720999837E-1
1.550299531E1,5.509999752E0,-5.327399731E0,-1.400499940E0
1.551300781E1,6.130300045E0,-5.587599754E0,-2.321499825E0
1.552298594E1,6.621299744E0,-6.479399681E0,-3.019199848E0
1.553300000E1,6.553699970E0,-8.070899963E0,-3.140199900E0
1.554300938E1,6.013000011E0,-1.007380009E1,-3.035499811E0
1.555298906E1,5.810699940E0,-1.175399971E1,-2.971199989E0
1.556300000E1,5.903199673E0,-1.284619999E1,-2.859899998E0
1.557301094E1,6.721600056E0,-1.369409943E1,-3.402999878E0
1.558299062E1,8.100399971E0,-1.416949940E1,-4.528500080E0
1.559300156E1,9.855199814E0,-1.349609947E1,-6.146899700E0
1.560298281E1,1.081969929E1,-1.208939934E1,-8.238100052E0
1.561299219E1,1.073799992E1,-1.038789940E1,-1.046420002E1
1.562300469E1,9.744299889E0,-8.597299576E0,-1.185279942E1
1.563298438E1,8.345999718E0,-7.164499760E0,-1.177180004E1
1.564299375E1,6.372699738E0,-5.855899811E0,-1.028559971E1
1.565300625E1,4.000499725E0,-4.692299843E0,-8.019599915E0
1.566298594E1,1.533199906E0,-4.323199749E0,-4.890100002E0
1.567299688E1,-1.374300003E0,-4.085000038E0,-1.651099920E0
1.568300781E1,-2.868899822E0,-3.460500002E0,1.347899914E0
1.569298750E1,-4.856599808E0,-2.437000036E0,2.593899965E0
1.570300000E1,-6.714499950E0,2.122999877E-1,4.254300117E0
1.571301094E1,-8.914699554E0,4.413000107E0,6.626399994E0
1.572299063E1,-1.147410011E1,1.043639946E1,1.244929981E1
1.573300156E1,-1.525009918E1,1.785759926E1,2.104579926E1
1.574301250E1,-1.831529999E1,2.211429977E1,2.930480003E1
1.575299219E1,-1.880220032E1,2.042399979E1,3.283879852E1
1.576300469E1,-1.921599960E1,1.816549873E1,3.185739899E1
1.577298281E1,-1.784039879E1,1.613450050E1,2.920349884E1
1.578299375E1,-1.508099937E1,1.447869968E1,2.525619888E1
1.579300625E1,-1.155369949E1,1.370549965E1,1.841409874E1
1.580298438E1,-7.524299622E0,1.315880013E1,9.270199776E0
1.581299688E1,-2.780400038E0,1.257429981E1,1.141999960E0
1.582300781E1,2.225100040E0,1.196280003E1,-4.992899895E0
1.583298750E1,5.623799801E0,1.131820011E1,-8.966300011E0
1.584299844E1,7.001800060E0,9.879300117E0,-1.022509956E1
1.585300938E1,6.498799801E0,8.324600220E0,-9.213899612E0
1.586298906E1,5.240900040E0,6.761799812E0,-7.446399689E0
1.587300000E1,3.763599873E0,5.226299763E0,-6.194200039E0
1.588301094E1,2.648000002E0,4.065899849E0,-6.238499641E0
1.589299063E1,1.884899974E0,2.820099831E0,-7.261099815E0
1.590300156E1,2.153599977E0,1.775499940E0,-8.710700035E0
1.591298281E1,3.007400036E0,1.013000011E0,-1.010439968E1
1.592299375E1,3.763000011E0,9.067999721E-1,-1.096350002E1
1.593300469E1,3.831199884E0,8.461999893E-1,-1.123979950E1
1.594298438E1,3.505800009E0,1.014899969E0,-1.079449940E1
1.595299531E1,2.536700010E0,9.322999716E-1,-1.042369938E1
1.596300625E1,5.554000139E-1,8.131999969E-1,-9.705800056E0
1.597298594E1,-1.404299974E0,8.355999589E-1,-8.233499527E0
1.598299688E1,-2.704099894E0,8.520999551E-1,-5.911799908E0
1.599300781E1,-3.911000013E0,9.734999537E-1,-1.986699939E0
1.600298750E1,-4.841199875E0,9.133999944E-1,2.789499998E0
1.601300000E1,-5.353300095E0,8.908999562E-1,7.403399944E0
1.602301094E1,-5.987899780E0,1.544299960E0,1.145769978E1
1.603300000E1,-6.827699661E0,2.682899952E0,1.473329926E1
1.604300156E1,-8.031800270E0,3.512699842E0,1.739270020E1
1.605301250E1,-1.042859936E1,4.959399700E0,2.094939995E1
1.606299219E1,-1.153289986E1,6.246399879E0,2.295819855E1
1.607300312E1,-1.230669975E1,8.164799690E0,2.788769913E1
1.608298281E1,-1.083669949E1,8.962100029E0,3.380909729E1
1.609299375E1,-7.132400036E0,7.459199905E0,3.762479782E1
1.610300625E1,-2.014099836E0,4.959099770E0,3.634499741E1
1.611298438E1,1.890999913E0,1.984599948E0,3.036749840E1
1.612299688E1,5.041999817E0,-1.005699992E0,2.317989922E1
1.613300781E1,7.524600029E0,-3.454399824E0,1.740579987E1
1.614298750E1,8.921299934E0,-5.452099800E0,1.302899933E1
1.615300000E1,9.039899826E0,-6.913899899E0,8.368800163E0
1.616300938E1,8.337699890E0,-7.530999660E0,3.546999931E0
1.617298906E1,7.406899929E0,-7.730999947E0,-1.207299948E0
1.618300000E1,6.623399734E0,-7.982399940E0,-5.706399918E0
1.619301250E1,6.168900013E0,-8.392499924E0,-9.410200119E0
1.620299062E1,5.828199863E0,-9.107699394E0,-1.220879936E1
1.621300312E1,5.842199802E0,-1.045919991E1,-1.332979965E1
1.622298281E1,6.158199787E0,-1.245909977E1,-1.262169933E1
1.623299375E1,6.357899666E0,-1.558789921E1,-1.172799969E1
1.624300469E1,5.023900032E0,-1.881089973E1,-1.067299938E1
1.625298438E1,3.498499870E0,-2.023320007E1,-9.829400063E0
1.626299531E1,3.713599920E0,-2.022489929E1,-1.110849953E1
1.627300781E1,5.921599865E0,-1.889319992E1,-1.473589993E1
1.628298594E1,8.276000023E0,-1.541909981E1,-1.888500023E1
1.629299688E1,9.911499977E0,-1.140549946E1,-2.183189964E1
1.630300781E1,1.082619953E1,-7.671499729E0,-2.290559959E1
1.631298906E1,1.009669971E1,-5.045000076E0,-2.203179932E1
1.632300000E1,7.436499596E0,-3.375200033E0,-1.894839859E1
1.633301094E1,3.939699888E0,-2.596299887E0,-1.370510006E1
1.634299063E1,1.181399941E0,-2.857499838E0,-7.864399910E0
1.635300156E1,-8.811999559E-1,-2.992300034E0,-3.006299973E0
1.636301250E1,-2.107800007E0,-3.001699924E0,5.137000084E-1
1.637299219E1,-2.574399948E0,-2.499099970E0,3.008100033E0
1.638300313E1,-2.064399958E0,-1.760499954E0,4.553800106E0
1.639298438E1,-1.492100000E0,-5.169000030E-1,6.474299908E0
1.640299375E1,-1.546999961E-1,2.145200014E0,1.150859928E1
1.641300469E1,1.429199934E0,5.932699680E0,2.062430000E1
1.642298438E1,1.142699957E0,1.060429955E1,3.130309868E1
1.643299688E1,-7.282999754E-1,1.513809967E1,3.761399841E1
1.644300781E1,-1.828399897E0,1.670719910E1,3.647089767E1
1.645298750E1,-4.170599937E0,2.178100014E1,3.022589874E1
1.646299844E1,-7.837999821E0,2.867329979E1,2.633269882E1
1.647300938E1,-8.828899384E0,3.209410095E1,2.841499901E1
1.648298906E1,-8.283100128E0,3.056169891E1,2.940839958E1
1.649300000E1,-8.412300110E0,2.518129921E1,2.429819870E1
1.650301094E1,-9.245200157E0,1.867149925E1,1.517889977E1
1.651299219E1,-1.030000019E1,1.310939980E1,6.723399639E0
1.652300313E1,-8.478699684E0,9.354399681E0,6.003000140E-1
1.653298281E1,-5.233299732E0,7.297699928E0,-4.224699974E0
1.654299375E1,-2.231199980E0,6.505799770E0,-8.104399681E0
1.655300469E1,3.290999830E-1,6.033400059E0,-1.070819950E1
1.656298438E1,1.816599965E0,5.178800106E0,-1.118379974E1
1.657299531E1,1.757599950E0,4.143099785E0,-1.008290005E1
1.658300625E1,2.850999832E-1,3.273999929E0,-8.888500214E0
1.659298594E1,-1.786799908E0,1.803799987E0,-8.732399940E0
1.660299688E1,-3.513399839E0,7.121999860E-1,-9.142199516E0
1.661300781E1,-4.694600105E0,-1.838999987E-1,-9.141799927E0
1.662298906E1,-4.867099762E0,-5.277000070E-1,-9.282400131E0
1.663300000E1,-4.146100044E0,-4.011999965E-1,-9.993000031E0
1.664301094E1,-2.969899893E0,3.418999910E-1,-1.079549980E1
1.665298906E1,-1.743499994E0,1.330799937E0,-1.135729980E1
1.666300156E1,-9.811999798E-1,2.104599953E0,-1.101229954E1
1.667298125E1,-1.191799998E0,2.260699987E0,-9.645599365E0
1.668299219E1,-2.074100018E0,1.570999980E0,-7.461999893E0
1.669300312E1,-3.457299948E0,2.708999813E-1,-4.360499859E0
1.670298281E1,-5.853799820E0,-4.666999876E-1,-1.246399999E0
1.671299375E1,-7.371899605E0,-4.003999829E-1,1.395699978E0
1.672300625E1,-8.361199379E0,5.720999837E-1,4.459199905E0
1.673298438E1,-8.647399902E0,2.708299875E0,7.510099888E0
1.674299531E1,-9.543899536E0,6.084300041E0,1.050070000E1
1.675300938E1,-1.101299953E1,1.033129978E1,1.275159931E1
1.676298750E1,-1.222379971E1,1.465869999E1,1.551649952E1
1.677299844E1,-1.158259964E1,1.605979919E1,2.077439880E1
1.678300938E1,-8.144999504E0,1.329339981E1,2.736739922E1
1.679298906E1,-2.581300020E0,7.967899799E0,3.100059891E1
1.680300000E1,4.516499996E0,1.226300001E0,2.997359848E1
1.681301094E1,1.004780006E1,-4.298299789E0,2.399849892E1
1.682299063E1,1.149009991E1,-6.280699730E0,1.967849922E1
1.683300312E1,1.230319977E1,-7.868799686E0,1.200559998E1
1.684298125E1,1.103689957E1,-6.852299690E0,5.047199726E0
1.685299219E1,8.882800102E0,-5.557399750E0,-2.144999951E-1
1.686300469E1,6.786099911E0,-4.547599792E0,-3.338500023E0
1.687298594E1,5.410899639E0,-3.629999876E0,-4.279900074E0
1.688299531E1,5.447299957E0,-3.470799923E0,-3.977599859E0
1.689300625E1,5.845900059E0,-4.388499737E0,-3.627399921E0
1.690298594E1,5.725999832E0,-6.666599751E0,-3.551999807E0
1.691299688E1,5.090399742E0,-9.435599327E0,-3.314199924E0
1.692300938E1,4.344500065E0,-1.173279953E1,-2.584699869E0
1.693298906E1,3.814599991E0,-1.304879951E1,-1.849299908E0
1.694300000E1,4.096600056E0,-1.351270008E1,-2.225999832E0
1.695301094E1,5.066199780E0,-1.421609974E1,-3.998999834E0
1.696299062E1,6.217899799E0,-1.417420006E1,-7.397099972E0
1.697300156E1,7.227699757E0,-1.321639919E1,-1.123740005E1
1.698298125E1,7.735199928E0,-1.130700016E1,-1.460799980E1
1.699299375E1,7.653399944E0,-9.121899605E0,-1.732989883E1
1.700300469E1,6.900799751E0,-7.226399899E0,-1.879059982E1
1.701298438E1,5.238899708E0,-5.664700031E0,-1.793070030E1
1.702299531E1,2.532599926E0,-4.351900101E0,-1.293349934E1
1.703300625E1,3.571999967E-1,-3.350399971E0,-6.268399715E0
1.704298594E1,-8.585999608E-1,-2.341300011E0,-1.332299948E0
1.705299531E1,-1.485999942E0,-1.299799919E0,1.176499963E0
1.706300781E1,-1.890599966E0,-7.989999652E-2,1.176599979E0
1.707298750E1,-1.794699907E0,1.709800005E0,4.860000014E-1
1.708299844E1,-1.958399892E0,4.641399860E0,-4.569000006E-1
1.709300938E1,-3.538399935E0,8.791399956E0,-8.649999648E-2
1.710298906E1,-4.957099915E0,1.357249928E1,5.453899860E0
1.711300156E1,-8.051099777E0,1.820759964E1,1.769659996E1
1.712301094E1,-9.446700096E0,1.978139877E1,2.966079903E1
1.713299062E1,-8.931699753E0,1.663579941E1,3.218970108E1
1.714300312E1,-8.124400139E0,1.380410004E1,2.864929962E1
1.715298281E1,-7.982100010E0,1.094909954E1,2.304640007E1
1.716299375E1,-8.404399872E0,8.812999725E0,1.891740036E1
1.717300469E1,-8.149299622E0,8.083499908E0,1.514349937E1
1.718298438E1,-6.801799774E0,7.596299648E0,1.017519951E1
1.719299531E1,-4.532299995E0,7.646100044E0,5.202799797E0
1.720300781E1,-3.164299965E0,7.314699650E0,3.184399843E0
1.721298594E1,-1.821599960E0,8.241799355E0,3.579999804E-1
1.722299688E1,-1.715999961E0,7.750699997E0,-6.997999549E-1
1.723300938E1,-3.215699911E0,6.240599632E0,-1.744000018E-1
1.724298906E1,-5.017299652E0,4.462899685E0,2.716000080E-1
1.725300000E1,-6.114199638E0,3.451200008E0,-2.190999985E-1
1.726301094E1,-6.812799931E0,3.292599916E0,-1.322600007E0
1.727299063E1,-6.674999714E0,3.808499813E0,-2.322799921E0
1.728300156E1,-5.575999737E0,4.384599686E0,-3.566999912E0
1.729298125E1,-3.857699871E0,5.144499779E0,-4.975599766E0
1.730299219E1,-1.988899946E0,6.028199673E0,-6.238800049E0
1.731300469E1,-1.017199993E0,6.876899719E0,-6.663699627E0
1.732298281E1,-1.108999968E0,7.226199627E0,-6.034399986E0
1.733299375E1,-2.170799971E0,6.888099670E0,-4.577600002E0
1.734300625E1,-3.898699999E0,5.961699963E0,-2.160899878E0
1.735298594E1,-5.945600033E0,4.966300011E0,1.825399995E0
1.736299688E1,-7.616299629E0,4.111799717E0,7.300600052E0
1.737300781E1,-9.493800163E0,3.196099997E0,1.227129936E1
1.738298750E1,-1.089739990E1,2.608700037E0,1.575709915E1
1.739300000E1,-1.110299969E1,3.010900021E0,1.791180038E1
1.740300938E1,-9.991299629E0,4.130099773E0,2.045769882E1
1.741298906E1,-7.756700039E0,3.880299807E0,2.499139977E1
1.742300000E1,-5.458199978E0,1.261299968E0,2.897929955E1
1.743301250E1,-2.356299877E0,-2.434000015E0,2.915320015E1
1.744299062E1,1.232499957E0,-5.629099846E0,2.532769966E1
1.745300313E1,5.193500042E0,-7.724999905E0,1.911789894E1
1.746298281E1,7.932999611E0,-7.970199585E0,1.244929981E1
1.747299375E1,8.055299759E0,-6.956500053E0,7.307099819E0
1.748300469E1,6.651599884E0,-5.537099838E0,3.733299971E0
1.749298438E1,4.779299736E0,-4.264199734E0,6.631999612E-1
1.750299531E1,3.460699797E0,-3.505499840E0,-2.817600012E0
1.751300781E1,3.076299906E0,-3.195299864E0,-6.449299812E0
1.752298594E1,3.964399815E0,-3.456399918E0,-8.874899864E0
1.753299688E1,5.796599865E0,-4.447899818E0,-9.362999916E0
1.754300938E1,6.674900055E0,-6.317899704E0,-8.072099686E0
1.755298906E1,7.583499908E0,-8.650699615E0,-6.409100056E0
1.756300000E1,8.812699318E0,-1.094079971E1,-4.989500046E0
1.757301094E1,9.991600037E0,-1.328489971E1,-4.538399696E0
1.758299062E1,1.063959980E1,-1.409539986E1,-4.796899796E0
1.759300313E1,1.262549973E1,-1.648469925E1,-5.285299778E0
1.760298125E1,1.379539967E1,-1.623900032E1,-6.176300049E0
1.761299219E1,1.320609951E1,-1.469709969E1,-8.784999847E0
1.762300469E1,1.246409988E1,-1.254999924E1,-1.257579994E1
1.763298438E1,1.120479965E1,-1.013799953E1,-1.573670006E1
1.764299531E1,9.508899689E0,-7.956899643E0,-1.750209999E1
1.765300625E1,7.354399681E0,-6.288699627E0,-1.684790039E1
1.766298594E1,3.854199886E0,-5.494699955E0,-1.324930000E1
1.767299688E1,-5.934000015E-1,-4.746500015E0,-6.732999802E0
1.768300781E1,-4.391999722E0,-3.523499966E0,7.497999668E-1
1.769298750E1,-6.467400074E0,-1.794799924E0,5.481499672E0
1.770299844E1,-7.232999802E0,1.221300006E0,8.722199440E0
1.771301094E1,-7.259899616E0,5.084899902E0,1.079279995E1
1.772298906E1,-7.083699703E0,8.508899689E0,1.219639969E1
1.773300156E1,-7.158399582E0,1.098820019E1,1.338229942E1
1.774301094E1,-7.509500027E0,1.270189953E1,1.554500008E1
1.775299063E1,-7.473799706E0,1.380179977E1,1.898729897E1
1.776300312E1,-5.890899658E0,1.400609970E1,2.312189865E1
1.777298281E1,-4.612699986E0,1.402749920E1,2.556189919E1
1.778299375E1,-4.467400074E0,1.422889996E1,2.519139862E1
1.779300469E1,-5.859799862E0,1.484819984E1,2.217650032E1
1.780298438E1,-7.433799744E0,1.488689995E1,1.689909935E1
1.781299531E1,-8.316699982E0,1.409859943E1,1.156099987E1
1.782300781E1,-8.192399979E0,1.283599949E1,6.883399963E0
1.783298750E1,-6.617399693E0,1.096719933E1,3.588599920E0
1.784299688E1,-2.708499908E0,9.320899963E0,2.214400053E0
1.785300938E1,-5.954999924E-1,8.784699440E0,6.780000031E-2
1.786298906E1,-1.155399919E0,7.935699940E0,-3.989599943E0
1.787300000E1,-2.409999847E0,6.742099762E0,-7.774399757E0
1.788301094E1,-3.147699833E0,5.016499996E0,-9.227600098E0
1.789299062E1,-3.413899899E0,3.086899996E0,-8.338399887E0
1.790300156E1,-3.434000015E0,1.541700006E0,-6.851599693E0
1.791298125E1,-3.509099960E0,3.907999992E-1,-6.104899883E0
1.792299219E1,-3.564100027E0,-6.859999895E-2,-6.290199757E0
1.793300469E1,-2.268800020E0,-1.701999903E-1,-6.817499638E0
1.794298281E1,-1.301899910E0,2.868999839E-1,-7.953999996E0
1.795299531E1,-7.391999960E-1,8.557999730E-1,-9.698999405E0
1.796300625E1,1.640000008E-2,1.024399996E0,-1.049930000E1
1.797298594E1,4.329999983E-1,2.006700039E0,-1.233169937E1
1.798299688E1,1.078400016E0,2.814699888E0,-1.260369968E1
1.799300781E1,2.006999969E0,2.755100012E0,-1.038389969E1
1.800298750E1,2.871799946E0,2.336499929E0,-6.333999634E0
1.801300000E1,3.492799997E0,1.967799902E0,-1.945099950E0
1.802300938E1,3.977199793E0,1.625899911E0,1.994499922E0
1.803298906E1,4.390699863E0,9.350999594E-1,5.498099804E0
1.804300156E1,3.976999998E0,3.925999999E-1,9.046500206E0
1.805301250E1,3.333699942E0,9.271999598E-1,1.221479988E1
1.806299219E1,2.146899939E0,2.610399961E0,1.524799919E1
1.807300312E1,6.423000097E-1,5.375199795E0,1.801119995E1
1.808298281E1,-8.630999923E-1,8.513199806E0,2.101129913E1
1.809299375E1,-1.248000026E0,1.042719936E1,2.378030014E1
1.810300469E1,-8.929999918E-2,9.437399864E0,2.566230011E1
1.811298438E1,2.366600037E0,6.684199810E0,2.543569946E1
1.812299531E1,5.474899769E0,3.764400005E0,2.273390007E1
1.813300781E1,7.614599705E0,1.193400025E0,1.774839973E1
1.814298750E1,6.840999603E0,-4.478999972E-1,1.211529922E1
1.815299844E1,3.873899937E0,-1.547799945E0,6.911900043E0
1.816300938E1,9.629999846E-2,-1.889799953E0,2.894799948E0
1.817298906E1,-3.173300028E0,-1.950599909E0,-3.099999856E-3
1.818300000E1,-4.956899643E0,-1.876500010E0,-2.771699905E0
1.819301094E1,-4.838500023E0,-2.225100040E0,-5.193099976E0
1.820299062E1,-3.256500006E0,-3.392599821E0,-6.816199780E0
1.821300156E1,-3.574999869E-1,-5.212199688E0,-7.212999821E0
1.822298125E1,2.209499836E0,-7.365900040E0,-7.108799934E0
1.823299375E1,4.112800121E0,-9.165999413E0,-6.836599827E0
1.824300312E1,4.952699661E0,-1.095860004E1,-6.176799774E0
1.825298438E1,5.249399662E0,-1.187119961E1,-4.798399925E0
1.826299531E1,5.579400063E0,-1.242259979E1,-4.304299831E0
1.827300781E1,6.044799805E0,-1.258409977E1,-5.865499973E0
1.828298594E1,6.286599636E0,-1.175899982E1,-8.963299751E0
1.829299688E1,6.085000038E0,-1.042430019E1,-1.230079937E1
1.830300781E1,5.349199772E0,-9.054399490E0,-1.564789963E1
1.831298906E1,4.086599827E0,-8.238800049E0,-1.818019867E1
1.832299844E1,2.677599907E0,-7.931499958E0,-1.932530022E1
1.833300938E1,1.569899917E0,-7.891499996E0,-1.805379868E1
1.834299063E1,8.489999920E-2,-6.686399937E0,-1.599359989E1
1.835300156E1,-1.562699914E0,-5.845999718E0,-1.124819946E1
1.836301250E1,-3.483599901E0,-4.561599731E0,-6.173099995E0
1.837299219E1,-5.288199902E0,-3.079200029E0,-2.554399967E0
1.838300625E1,-7.326799870E0,-1.645999998E-1,-2.029599905E0
1.839298281E1,-6.979699612E0,1.385900021E0,-1.747499943E0
1.840299375E1,-6.643199921E0,3.246099949E0,-3.067600012E0
1.841300469E1,-5.828399658E0,4.415999889E0,-3.723099947E0
1.842298438E1,-5.236299992E0,5.415499687E0,-3.344899893E0
1.843299688E1,-4.776899815E0,5.925699711E0,-2.672399998E0
1.844300625E1,-4.395999908E0,6.253999710E0,-1.623899937E0
1.845298594E1,-3.994299889E0,6.154900074E0,-2.116999924E-1
1.846299844E1,-3.411799908E0,5.991699696E0,1.934999943E0
1.847300938E1,-2.863899946E0,6.282700062E0,3.440599918E0
1.848298906E1,-2.514600039E0,6.850199699E0,4.160200119E0
1.849300000E1,-1.829800010E0,7.487599850E0,3.969599962E0
1.850301094E1,-1.049799919E0,8.300700188E0,2.736299992E0
1.851299062E1,-3.622999787E-1,9.014699936E0,2.277400017E0
1.852300156E1,6.708999872E-1,9.089200020E0,4.156300068E0
1.853298281E1,5.705999732E-1,9.460000038E0,8.079699516E0
1.854299375E1,-9.271999598E-1,1.085879993E1,1.387609959E1
1.855300469E1,-3.250200033E0,1.314659977E1,2.025989914E1
1.856298438E1,-6.049599648E0,1.564109993E1,2.216539955E1
1.857299531E1,-7.681499958E0,1.743799973E1,1.915939903E1
1.858300625E1,-7.087699890E0,1.717609978E1,1.569699955E1
1.859298594E1,-5.443399906E0,1.718459892E1,1.424020004E1
1.860299688E1,-4.487100124E0,1.872229958E1,1.229619980E1
1.861300781E1,-4.011799812E0,2.128699875E1,9.664599419E0
1.862298750E1,-2.878499985E0,2.309029961E1,9.199699402E0
1.863300000E1,-8.619999886E-2,2.362500000E1,1.114550018E1
1.864300938E1,3.503099918E0,2.212929916E1,1.269619942E1
1.865298906E1,6.325299740E0,1.748149872E1,1.305949974E1
1.866300156E1,8.202499390E0,1.273359966E1,1.173849964E1
1.867301250E1,9.484999657E0,7.960099697E0,9.454999924E0
1.868299063E1,1.078249931E1,2.890399933E0,9.576899529E0
1.869300312E1,1.036429977E1,-1.513099909E0,1.094209957E1
1.870298281E1,7.344399929E0,-4.074299812E0,1.337969971E1
1.871299375E1,3.458199978E0,-4.640699863E0,1.613259888E1
1.872300469E1,1.969999909E0,-4.253200054E0,1.667029953E1
1.873298438E1,-4.481999874E-1,-3.322199821E0,1.456949997E1
1.874299531E1,-2.086600065E0,-1.982999921E0,9.251699448E0
1.875300781E1,-3.457799911E0,-3.416000009E-1,3.375599861E0
1.876298750E1,-4.144000053E0,1.412099957E0,-1.452899933E0
1.877299844E1,-3.879899979E0,2.335899830E0,-4.564799786E0
1.878300938E1,-3.316799879E0,2.527499914E0,-4.557799816E0
1.879298906E1,-3.483999968E0,2.128799915E0,-1.250899911E0
1.880300000E1,-4.805500031E0,1.772399902E0,3.704199791E0
1.881301250E1,-7.272299767E0,1.623099923E0,6.849799633E0
1.882299063E1,-9.661799431E0,2.088799953E0,8.409799576E0
1.883300156E1,-6.519700050E0,8.687999845E-1,1.160260010E1
1.884298281E1,-4.296000004E-1,-1.317999959E-1,1.578729916E1
1.885299219E1,4.850500107E0,-1.283499956E0,1.809849930E1
1.886300469E1,8.214799881E0,-3.228299856E0,1.830780029E1
1.887298438E1,9.945099831E0,-4.873099804E0,1.611079979E1
1.888299531E1,1.014319992E1,-6.113800049E0,1.260079956E1
1.889300625E1,8.591599464E0,-7.483099937E0,9.742799759E0
1.890298594E1,5.175499916E0,-7.293599606E0,8.922499657E0
1.891299844E1,2.039499998E0,-6.204699993E0,7.743099689E0
1.892300781E1,8.959999681E-1,-5.520999908E0,5.104300022E0
1.893298906E1,8.147999644E-1,-4.955599785E0,1.788800001E0
1.894300000E1,1.389299989E0,-4.579799652E0,-1.579899907E0
1.895301094E1,2.080699921E0,-4.282599926E0,-5.125199795E0
1.896299062E1,3.157899857E0,-4.747600079E0,-7.992799759E0
1.897300156E1,3.699999809E0,-6.147899628E0,-9.408999443E0
1.898301250E1,3.840999842E0,-7.994299889E0,-8.785799980E0
1.899299219E1,3.578499794E0,-9.280200005E0,-6.902499676E0
1.900300313E1,3.359899998E0,-1.001219940E1,-5.431999683E0
1.901298281E1,3.852099895E0,-9.992400169E0,-6.238999844E0
1.902299375E1,4.714399815E0,-9.395299911E0,-8.529799461E0
1.903300625E1,5.204699993E0,-8.369500160E0,-1.100710011E1
1.904298438E1,5.213099957E0,-6.850399971E0,-1.248419952E1
1.905299688E1,4.626699924E0,-4.647099972E0,-1.247189999E1
1.906300781E1,3.720899820E0,-3.017799854E0,-1.064009953E1
1.907298750E1,2.403100014E0,-1.781299949E0,-7.043200016E0
1.908299844E1,9.786999822E-1,-7.953000069E-1,-2.909399986E0
1.909300938E1,-4.872999787E-1,2.953999937E-1,1.784199953E0
1.910298906E1,-1.100499988E0,1.375000000E0,4.802999973E0
1.911300000E1,-1.379599929E0,3.121199846E0,1.029249954E1
1.912301094E1,-1.328699946E0,5.639400005E0,1.406579971E1
1.913299219E1,-8.267999887E-1,8.785099983E0,1.486159992E1
1.914300156E1,1.584599972E0,1.212709999E1,1.355839920E1
1.915298281E1,5.185699940E0,1.444729996E1,1.329479980E1
1.916299219E1,9.338199615E0,1.411459923E1,1.490599918E1
1.917300469E1,1.202919960E1,1.110989952E1,1.705200005E1
1.918298438E1,1.067299938E1,6.744599819E0,1.711619949E1
1.919299531E1,5.155499935E0,4.545799732E0,1.552369976E1
1.920300625E1,-2.034100056E0,4.900599957E0,1.198499966E1
1.921298594E1,-6.555199623E0,6.024399757E0,6.290400028E0
1.922299688E1,-8.299399376E0,7.201699734E0,1.072999984E-1
1.923300938E1,-8.763899803E0,8.130399704E0,-5.631899834E0
1.924298750E1,-8.749099731E0,8.536799431E0,-1.047959995E1
1.925300000E1,-8.358599663E0,8.643799782E0,-1.439239979E1
1.926301094E1,-7.561800003E0,8.233499527E0,-1.656599998E1
1.927299063E1,-7.227099895E0,7.726799965E0,-1.753279877E1
1.928300156E1,-7.400399685E0,6.866499901E0,-1.738439941E1
1.929301250E1,-7.240200043E0,5.157999992E0,-1.547019958E1
1.930299219E1,-6.956299782E0,3.472299814E0,-1.293929958E1
1.931300312E1,-6.664700031E0,2.014699936E0,-1.005789948E1
1.932298281E1,-6.405600071E0,1.040099978E0,-7.894599915E0
1.933299375E1,-5.818199635E0,5.339999795E-1,-7.084599972E0
1.934300625E1,-4.928100109E0,6.979999691E-2,-7.210299969E0
1.935298438E1,-4.163000107E0,-4.592999816E-1,-7.422199726E0
1.936299688E1,-4.044099808E0,-1.103099942E0,-5.863199711E0
1.937300781E1,-4.372399807E0,-1.537799954E0,-3.317799807E0
1.938298750E1,-4.943399906E0,-1.649699926E0,-1.087999940E-1
1.939300000E1,-4.291500092E0,-1.276999950E0,3.020900011E0
1.940300938E1,-2.279000044E0,-7.184000015E-1,6.057899952E0
1.941298906E1,-2.735999823E-1,1.019099951E0,9.478499413E0
1.942300000E1,1.241199970E0,3.399299860E0,1.317709923E1
1.943301094E1,1.976999998E0,5.203999996E0,1.569229984E1
1.944299062E1,2.560499907E0,7.021299839E0,1.625489998E1
1.945300313E1,3.895099878E0,8.783699989E0,1.433419991E1
1.946298281E1,6.028599739E0,9.128499985E0,1.083920002E1
1.947299375E1,8.706399918E0,8.549900055E0,8.627799988E0
1.948300469E1,9.761400223E0,8.038299561E0,8.352000237E0
1.949298438E1,1.170339966E1,5.883899689E0,8.767299652E0
1.950299531E1,1.175549984E1,2.847899914E0,9.326600075E0
1.951300781E1,1.014239979E1,-1.612999886E-1,9.214300156E0
1.952298594E1,8.220099449E0,-3.567299843E0,8.084899902E0
1.953299688E1,6.466300011E0,-6.592999935E0,7.950999737E0
1.954300938E1,5.335000038E0,-9.547499657E0,8.182600021E0
1.955298906E1,5.190000057E0,-1.208729935E1,8.902999878E0
1.956300000E1,5.581500053E0,-1.353969955E1,8.799499512E0
1.957301094E1,6.415299892E0,-1.438299942E1,7.477299690E0
1.958299062E1,7.230499744E0,-1.461499977E1,5.003699780E0
1.959300156E1,7.393599987E0,-1.381439972E1,2.701699972E0
1.960298125E1,5.969099998E0,-1.165799999E1,1.265999913E0
1.961299219E1,4.846600056E0,-9.185199738E0,4.638999999E-1
1.962300312E1,3.891499996E0,-6.624899864E0,9.544999599E-1
1.963298438E1,2.758199930E0,-3.236199856E0,3.669799805E0
1.964299375E1,2.291599989E0,4.783999920E-1,8.004499435E0
1.965300625E1,1.681499958E0,2.816499949E0,1.103879929E1
1.966298438E1,5.812999606E-1,3.126699924E0,1.084749985E1
1.967299531E1,-2.051599979E0,4.440000057E0,5.995699883E0
1.968300781E1,-6.268599987E0,8.086199760E0,-3.727899790E0
1.969298750E1,-1.172039986E1,1.433909988E1,-1.451349926E1
1.970299844E1,-1.624639893E1,2.166180038E1,-2.103870010E1
1.971300938E1,-1.820559883E1,2.744839859E1,-2.305949974E1
1.972298906E1,-1.439229965E1,2.657199860E1,-2.188549995E1
1.973300156E1,-1.228119946E1,2.305109978E1,-2.115749931E1
1.974301094E1,-9.442799568E0,1.300290012E1,-1.865169907E1
1.975299219E1,-4.031199932E0,2.737200022E0,-1.353870010E1
1.976300312E1,6.664999723E-1,-5.499000072E0,-6.552299976E0
1.977298281E1,3.500900030E0,-1.148709965E1,-2.222999930E-1
1.978299375E1,3.998799801E0,-1.406180000E1,3.169899940E0
1.979300469E1,3.842199802E0,-1.345519924E1,2.603999853E0
1.980298438E1,3.059399843E0,-1.149549961E1,2.374999970E-1
1.981299531E1,1.538599968E0,-9.846699715E0,-2.481899977E0
1.982300625E1,-1.750000007E-2,-9.380099297E0,-4.492499828E0
1.983298750E1,-5.597000122E-1,-9.491000175E0,-4.668799877E0
1.984299688E1,-2.324999869E-1,-1.007649994E1,-3.290999889E0
1.985300781E1,4.106999934E-1,-1.037339973E1,-1.782699943E0
1.986298906E1,9.093999863E-1,-1.040779972E1,-1.135599971E0
1.987300156E1,1.540399909E0,-1.023719978E1,-6.229999661E-1
1.988301094E1,2.696799994E0,-9.574199677E0,-1.296000034E-1
1.989299062E1,3.141099930E0,-8.678099632E0,9.226999879E-1
1.990300156E1,3.093299866E0,-8.246899605E0,2.342099905E0
1.991298125E1,2.971599817E0,-7.967199802E0,4.408899784E0
1.992299219E1,2.845499992E0,-7.750699997E0,5.850999832E0
1.993300313E1,1.755499959E0,-7.516599655E0,5.250400066E0
1.994298281E1,2.867999971E-1,-6.628499985E0,3.039599895E0
1.995299375E1,-2.560899973E0,-4.199899673E0,4.869000018E-1
1.996300469E1,-5.665499687E0,1.222999990E-1,-2.033699989E0
1.997298594E1,-7.589299679E0,5.333099842E0,-3.798599958E0
1.998299688E1,-8.352399826E0,1.003989983E1,-4.800999641E0
1.999300781E1,-8.771699905E0,1.271449947E1,-5.862599850E0
2.000298750E1,-8.436699867E0,1.335059929E1,-6.634999752E0
2.001299844E1,-7.694399834E0,1.264330006E1,-5.851799965E0
2.002300938E1,-6.859799862E0,1.094309998E1,-3.786799908E0
2.003298906E1,-6.190799713E0,9.142600060E0,-4.883999825E-1
2.004300156E1,-4.967599869E0,7.388499737E0,3.343799829E0
2.005301094E1,-4.419099808E0,6.238499641E0,6.657799721E0
2.006299219E1,-5.650899887E0,7.159599781E0,9.479999542E0
2.007300312E1,-8.560599327E0,9.224800110E0,1.292759991E1
2.008298281E1,-1.110769939E1,1.097869968E1,1.569409943E1
2.009299219E1,-1.072249985E1,1.089139938E1,1.550119972E1
2.010300469E1,-7.831799984E0,9.609299660E0,1.591259956E1
2.011298438E1,-2.947000027E0,8.245800018E0,1.727910042E1
2.012299531E1,9.750999808E-1,5.564499855E0,1.746179962E1
2.013300625E1,3.259299994E0,2.017199993E0,1.636279869E1
2.014298750E1,4.582499981E0,-1.659899950E0,1.411629963E1
2.015299688E1,4.600199699E0,-4.695099831E0,1.160190010E1
2.016300781E1,3.752899885E0,-6.898999691E0,9.770699501E0
2.017298750E1,2.162499905E0,-7.915799618E0,9.131199837E0
2.018300000E1,1.312600017E0,-8.401199341E0,9.576700211E0
2.019301094E1,1.494199991E0,-8.587499619E0,9.764299393E0
2.020299062E1,2.639299870E0,-8.523300171E0,9.026100159E0
2.021300156E1,3.886399984E0,-8.665100098E0,8.220899582E0
2.022298125E1,4.592199802E0,-8.885600090E0,6.534299850E0
2.023299375E1,4.734999657E0,-8.742799759E0,5.111000061E0
2.024300312E1,4.855000019E0,-9.160999298E0,4.379300117E0
2.025298281E1,5.418499947E0,-9.490300179E0,3.415799856E0
2.026299531E1,5.846499920E0,-9.752900124E0,2.317600012E0
2.027300625E1,6.297699928E0,-9.932999611E0,5.072000027E-1
2.028298594E1,6.846299648E0,-9.732500076E0,-1.541700006E0
2.029299688E1,7.119599819E0,-9.087100029E0,-3.355700016E0
2.030300781E1,7.220599651E0,-8.414799690E0,-4.393599987E0
2.031298750E1,7.219999790E0,-7.778100014E0,-4.898900032E0
2.032300000E1,6.873999596E0,-7.022099972E0,-5.095299721E0
2.033301094E1,6.217799664E0,-6.100599766E0,-5.463299751E0
2.034298906E1,5.332799911E0,-4.907499790E0,-6.177099705E0
2.035300156E1,4.376199722E0,-3.789899826E0,-7.319900036E0
2.036301094E1,3.485599995E0,-2.620399952E0,-8.710399628E0
2.037299219E1,2.645799875E0,-1.435599923E0,-9.854800224E0
2.038300313E1,1.671800017E0,-1.259000003E-1,-1.030509949E1
2.039298281E1,5.160999894E-1,1.386600018E0,-1.021549988E1
2.040299375E1,-8.007000089E-1,2.393199921E0,-9.174900055E0
2.041300469E1,-1.993499994E0,3.477499962E0,-7.353099823E0
2.042298438E1,-3.556900024E0,4.971799850E0,-5.409399986E0
2.043299531E1,-5.791399956E0,6.385399818E0,-2.543999910E0
2.044300625E1,-7.408299923E0,7.639699936E0,5.078999996E-1
2.045298750E1,-8.610699654E0,9.201499939E0,2.306999922E0
2.046299688E1,-9.106499672E0,1.193779945E1,1.534600019E0
2.047300938E1,-8.795700073E0,1.535269928E1,-2.092099905E0
2.048298906E1,-8.083899498E0,1.840130043E1,-6.793499947E0
2.049300000E1,-7.059599876E0,2.091709900E1,-8.430999756E0
2.050301094E1,-8.083499908E0,2.451969910E1,-4.975800037E0
2.051299062E1,-8.113100052E0,2.300239944E1,2.962800026E0
2.052300156E1,-7.562599659E0,1.633670044E1,1.062239933E1
2.053298125E1,-7.790299892E0,8.995999336E0,1.545609951E1
2.054299219E1,-7.226399899E0,3.044499874E0,1.712870026E1
2.055300312E1,-4.874599934E0,-1.742699981E0,1.580529976E1
2.056298438E1,-2.337699890E0,-4.617599964E0,1.318919945E1
2.057299531E1,-2.883000076E-1,-5.636699677E0,9.978699684E0
2.058300625E1,1.425400019E0,-5.699599743E0,8.002300262E0
2.059298750E1,2.180700064E0,-5.035999775E0,6.585999966E0
2.060299688E1,2.206500053E0,-4.473999977E0,4.203199863E0
2.061300781E1,1.529699922E0,-4.039999962E0,1.790499926E0
2.062298750E1,2.066400051E0,-3.872599840E0,3.885999918E-1
