"Time (s)","Acceleration x (m/s^2)","Acceleration y (m/s^2)","Acceleration z (m/s^2)"
0.000000000E0,2.911349297E0,8.465897560E0,4.367023945E0
7.995313000E-3,2.873042107E0,8.350975990E0,4.290409565E0
1.300156300E-2,2.911349297E0,8.389283180E0,4.290409565E0
1.800781300E-2,2.949656487E0,8.312667847E0,4.175487995E0
2.298125000E-2,2.949656487E0,8.236053467E0,4.137180328E0
2.798750000E-2,3.064578056E0,8.121131897E0,4.137180328E0
3.299218800E-2,3.141192675E0,8.082824707E0,4.060565948E0
3.799843800E-2,3.179499865E0,8.082824707E0,4.213795185E0
4.300312500E-2,2.987963676E0,8.121131897E0,4.328716755E0
4.800937500E-2,2.834734917E0,8.197746277E0,4.558559895E0
5.298437500E-2,2.681505919E0,8.350975990E0,4.711789131E0
5.798906300E-2,2.489969730E0,8.389283180E0,4.903325081E0
6.299375000E-2,2.336740971E0,8.465897560E0,5.171475887E0
6.800000000E-2,2.298433542E0,8.848969460E0,5.286397457E0
7.300625000E-2,2.183511972E0,9.040505409E0,5.516240597E0
7.801093800E-2,2.375048161E0,9.155426979E0,5.592854977E0
8.298593800E-2,2.375048161E0,9.117119789E0,5.707777023E0
8.799062500E-2,2.336740971E0,8.963891029E0,5.477933407E0
9.299687500E-2,2.298433542E0,8.734047890E0,5.401319027E0
9.800156300E-2,2.375048161E0,8.542511940E0,5.324704647E0
1.030078130E-1,2.336740971E0,8.350975990E0,5.286397457E0
1.079828130E-1,2.260126352E0,8.197746277E0,5.133168221E0
1.129875000E-1,2.145204782E0,8.082824707E0,5.056553841E0
1.179937500E-1,1.953668594E0,8.006210327E0,5.056553841E0
1.229984380E-1,1.877054095E0,7.852981567E0,5.171475887E0
1.280046880E-1,1.647210717E0,7.738059998E0,5.248090267E0
1.330093750E-1,1.417367458E0,7.738059998E0,5.286397457E0
1.379843750E-1,1.340752959E0,7.814674377E0,5.171475887E0
1.429890630E-1,1.302445769E0,7.776367188E0,5.248090267E0
1.479953130E-1,1.149216771E0,7.776367188E0,5.171475887E0
1.530000000E-1,1.034295082E0,7.738059998E0,5.094861031E0
1.580062500E-1,9.576807022E-1,7.891288757E0,5.056553841E0
1.630125000E-1,1.072602391E0,7.852981567E0,5.133168221E0
1.679859380E-1,1.149216771E0,7.891288757E0,5.171475887E0
1.729921880E-1,1.340752959E0,7.814674377E0,5.286397457E0
1.779968750E-1,1.647210717E0,7.814674377E0,5.363011837E0
1.830031250E-1,1.800439715E0,7.623138428E0,5.286397457E0
1.880093750E-1,1.953668594E0,7.469909191E0,5.439626217E0
1.929843750E-1,2.183511972E0,7.393294811E0,5.592854977E0
1.979890630E-1,2.106897593E0,7.393294811E0,5.592854977E0
2.029937500E-1,2.260126352E0,7.508216381E0,5.439626217E0
2.079984380E-1,2.260126352E0,7.584830761E0,5.209783077E0
2.130046880E-1,2.336740971E0,7.584830761E0,5.209783077E0
2.180109380E-1,2.375048161E0,7.738059998E0,4.941632271E0
2.229843750E-1,2.375048161E0,7.852981567E0,4.596867085E0
2.279890630E-1,2.375048161E0,7.929595947E0,4.443638325E0
2.329953130E-1,2.451662540E0,7.891288757E0,4.481945515E0
2.380015630E-1,2.413355350E0,7.891288757E0,4.596867085E0
2.430078130E-1,2.566584110E0,7.852981567E0,5.018246651E0
2.480125000E-1,2.643198729E0,7.891288757E0,5.209783077E0
2.529859380E-1,2.681505919E0,7.814674377E0,5.401319027E0
2.579921880E-1,2.528276920E0,7.891288757E0,5.401319027E0
2.629984380E-1,2.489969730E0,8.082824707E0,5.286397457E0
2.680046880E-1,2.489969730E0,8.082824707E0,5.286397457E0
2.730093750E-1,2.451662540E0,7.852981567E0,5.171475887E0
2.779828130E-1,2.451662540E0,7.891288757E0,5.018246651E0
2.829906250E-1,2.451662540E0,7.967903137E0,4.941632271E0
2.879937500E-1,2.298433542E0,7.891288757E0,4.903325081E0
2.930000000E-1,2.260126352E0,8.044517517E0,4.788403511E0
2.980062500E-1,2.183511972E0,8.006210327E0,4.635174274E0
3.030109380E-1,2.106897593E0,7.929595947E0,4.596867085E0
3.079859380E-1,1.953668594E0,7.929595947E0,4.673481941E0
3.129906250E-1,2.106897593E0,7.929595947E0,4.865017891E0
3.179968750E-1,2.183511972E0,7.814674377E0,4.979939461E0
3.230015630E-1,2.068590164E0,7.929595947E0,5.056553841E0
3.280078130E-1,2.145204782E0,7.891288757E0,5.056553841E0
3.329828130E-1,2.106897593E0,7.891288757E0,5.171475887E0
3.379859380E-1,2.068590164E0,7.967903137E0,5.094861031E0
3.429921880E-1,1.838746905E0,7.891288757E0,4.979939461E0
3.479984380E-1,1.762132406E0,7.891288757E0,5.056553841E0
3.530046880E-1,1.838746905E0,7.891288757E0,5.094861031E0
3.580093750E-1,1.723825216E0,7.891288757E0,5.094861031E0
3.629828130E-1,1.647210717E0,7.929595947E0,5.133168221E0
3.679890630E-1,1.685518026E0,7.967903137E0,5.286397457E0
3.729937500E-1,1.647210717E0,8.006210327E0,5.324704647E0
3.780015630E-1,1.493981838E0,7.967903137E0,5.439626217E0
3.830062500E-1,1.379060149E0,7.929595947E0,5.554547787E0
3.880109380E-1,1.417367458E0,7.929595947E0,5.554547787E0
3.929859380E-1,1.493981838E0,7.891288757E0,5.554547787E0
3.979906250E-1,1.570596337E0,7.814674377E0,5.554547787E0
4.029968750E-1,1.570596337E0,7.776367188E0,5.439626217E0
4.080031250E-1,1.532289028E0,7.852981567E0,5.363011837E0
4.130078130E-1,1.493981838E0,7.891288757E0,5.248090267E0
4.179828130E-1,1.570596337E0,7.929595947E0,5.133168221E0
4.229875000E-1,1.647210717E0,8.044517517E0,5.209783077E0
4.279937500E-1,1.647210717E0,8.197746277E0,5.209783077E0
4.330000000E-1,1.723825216E0,8.006210327E0,5.324704647E0
4.380046880E-1,1.762132406E0,8.006210327E0,5.209783077E0
4.430093750E-1,1.800439715E0,8.006210327E0,5.248090267E0
4.479843750E-1,1.838746905E0,8.044517517E0,5.248090267E0
4.529890630E-1,1.953668594E0,8.121131897E0,5.248090267E0
4.579953130E-1,1.991975784E0,8.044517517E0,5.286397457E0
4.630000000E-1,1.915361404E0,8.121131897E0,5.363011837E0
4.680062500E-1,1.800439715E0,8.006210327E0,5.324704647E0
4.730109380E-1,1.723825216E0,8.006210327E0,5.286397457E0
4.779859380E-1,1.762132406E0,7.967903137E0,5.209783077E0
4.829921880E-1,1.685518026E0,8.006210327E0,5.248090267E0
4.879968750E-1,1.685518026E0,8.006210327E0,5.171475887E0
4.930031250E-1,1.723825216E0,7.967903137E0,5.094861031E0
4.980093750E-1,1.723825216E0,8.044517517E0,5.056553841E0
5.029828130E-1,1.800439715E0,8.044517517E0,4.941632271E0
5.079875000E-1,1.877054095E0,8.006210327E0,4.750096321E0
5.129937500E-1,1.877054095E0,7.929595947E0,4.826710701E0
5.180000000E-1,1.800439715E0,7.929595947E0,4.788403511E0
5.230046880E-1,1.800439715E0,7.929595947E0,4.788403511E0
5.280109380E-1,1.838746905E0,7.929595947E0,4.635174274E0
5.329843750E-1,1.762132406E0,7.929595947E0,4.635174274E0
5.379906250E-1,1.723825216E0,7.929595947E0,4.673481941E0
5.429953130E-1,1.608903527E0,8.006210327E0,4.788403511E0
5.480015630E-1,1.685518026E0,8.121131897E0,4.865017891E0
5.530078130E-1,1.685518026E0,8.121131897E0,5.094861031E0
5.579812500E-1,1.723825216E0,8.121131897E0,5.209783077E0
5.629875000E-1,1.647210717E0,8.197746277E0,5.324704647E0
5.679921880E-1,1.608903527E0,8.159439087E0,5.401319027E0
5.729984380E-1,1.532289028E0,8.006210327E0,5.516240597E0
5.780031250E-1,1.608903527E0,8.006210327E0,5.554547787E0
5.830093750E-1,1.647210717E0,8.044517517E0,5.439626217E0
5.879828130E-1,1.647210717E0,8.006210327E0,5.363011837E0
5.929890630E-1,1.647210717E0,8.006210327E0,5.363011837E0
5.979937500E-1,1.762132406E0,8.082824707E0,5.248090267E0
6.030000000E-1,1.800439715E0,8.121131897E0,5.133168221E0
6.080062500E-1,1.838746905E0,8.082824707E0,5.171475887E0
6.130109380E-1,1.762132406E0,8.236053467E0,5.133168221E0
6.179859380E-1,1.685518026E0,8.236053467E0,5.209783077E0
6.229906250E-1,1.647210717E0,8.274360657E0,5.401319027E0
6.279968750E-1,1.685518026E0,8.159439087E0,5.401319027E0
6.330031250E-1,1.608903527E0,8.006210327E0,5.363011837E0
6.380078130E-1,1.647210717E0,8.044517517E0,5.363011837E0
6.429812500E-1,1.647210717E0,8.159439087E0,5.286397457E0
6.479875000E-1,1.608903527E0,8.197746277E0,5.401319027E0
6.529921880E-1,1.685518026E0,8.236053467E0,5.439626217E0
6.579984380E-1,1.532289028E0,8.312667847E0,5.439626217E0
6.630046880E-1,1.532289028E0,8.350975990E0,5.439626217E0
6.680093750E-1,1.417367458E0,8.350975990E0,5.363011837E0
6.729843750E-1,1.493981838E0,8.389283180E0,5.363011837E0
6.779890630E-1,1.493981838E0,8.427590370E0,5.363011837E0
6.829953130E-1,1.532289028E0,8.504204750E0,5.324704647E0
6.880000000E-1,1.340752959E0,8.465897560E0,5.401319027E0
6.930062500E-1,1.302445769E0,8.427590370E0,5.248090267E0
6.980109380E-1,1.264138460E0,8.504204750E0,5.363011837E0
7.029859380E-1,1.110909581E0,8.542511940E0,5.592854977E0
7.079906250E-1,9.576807022E-1,8.695740700E0,5.784391403E0
7.129968750E-1,9.193734527E-1,8.657433510E0,5.822698593E0
7.180031250E-1,9.959878922E-1,8.619126320E0,5.899312973E0
7.230078130E-1,9.576807022E-1,8.465897560E0,5.975927353E0
7.279828130E-1,9.576807022E-1,8.312667847E0,5.822698593E0
7.329875000E-1,1.072602391E0,8.236053467E0,5.707777023E0
7.379937500E-1,1.072602391E0,8.121131897E0,5.516240597E0
7.429984380E-1,1.149216771E0,8.044517517E0,5.516240597E0
7.480046880E-1,1.187524080E0,7.967903137E0,5.554547787E0
7.530093750E-1,1.187524080E0,7.814674377E0,5.516240597E0
7.579843750E-1,1.149216771E0,7.699752808E0,5.631162167E0
7.629906250E-1,1.149216771E0,7.623138428E0,5.631162167E0
7.679953130E-1,1.072602391E0,7.469909191E0,5.746084213E0
7.730015630E-1,9.576807022E-1,7.584830761E0,5.822698593E0
7.780062500E-1,1.034295082E0,7.508216381E0,5.861005783E0
7.830125000E-1,1.110909581E0,7.584830761E0,5.937620163E0
7.879859380E-1,9.576807022E-1,7.584830761E0,6.052541733E0
7.929921880E-1,8.044517636E-1,7.623138428E0,6.129156113E0
7.979968750E-1,7.661445141E-1,7.584830761E0,6.167463779E0
8.030031250E-1,8.044517636E-1,7.508216381E0,5.975927353E0
8.080093750E-1,8.427590132E-1,7.469909191E0,5.861005783E0
8.129828130E-1,8.810662031E-1,7.393294811E0,5.899312973E0
8.179890630E-1,9.576807022E-1,7.393294811E0,5.822698593E0
8.229937500E-1,9.959878922E-1,7.469909191E0,5.631162167E0
8.280000000E-1,1.034295082E0,7.431602001E0,5.516240597E0
8.330062500E-1,1.110909581E0,7.469909191E0,5.477933407E0
8.380109380E-1,1.225831270E0,7.546523571E0,5.477933407E0
8.429843750E-1,1.149216771E0,7.584830761E0,5.477933407E0
8.479906250E-1,1.187524080E0,7.584830761E0,5.516240597E0
8.529953130E-1,1.225831270E0,7.469909191E0,5.477933407E0
8.580015630E-1,1.225831270E0,7.316680431E0,5.516240597E0
8.630062500E-1,1.149216771E0,7.240066051E0,5.477933407E0
8.679812500E-1,1.110909581E0,7.240066051E0,5.324704647E0
8.729875000E-1,1.225831270E0,7.240066051E0,5.324704647E0
8.779921880E-1,1.264138460E0,7.201758862E0,5.363011837E0
8.829984380E-1,1.225831270E0,7.201758862E0,5.439626217E0
8.880031250E-1,1.110909581E0,7.125144482E0,5.477933407E0
8.930093750E-1,1.149216771E0,7.240066051E0,5.477933407E0
8.979828130E-1,1.110909581E0,7.163451672E0,5.516240597E0
9.029890630E-1,1.110909581E0,7.240066051E0,5.516240597E0
9.079937500E-1,1.340752959E0,7.278373241E0,5.516240597E0
9.130015630E-1,1.493981838E0,7.201758862E0,5.439626217E0
9.180062500E-1,1.608903527E0,7.163451672E0,5.516240597E0
9.230109380E-1,1.762132406E0,7.048529625E0,5.363011837E0
9.279859380E-1,1.608903527E0,7.086836815E0,5.094861031E0
9.329906250E-1,1.608903527E0,7.163451672E0,4.941632271E0
9.379968750E-1,1.608903527E0,7.316680431E0,4.635174274E0
9.430031250E-1,1.608903527E0,7.393294811E0,4.520252705E0
9.480078130E-1,1.455674648E0,7.393294811E0,4.290409565E0
9.529828130E-1,1.340752959E0,7.431602001E0,4.175487995E0
9.579875000E-1,1.225831270E0,7.469909191E0,4.175487995E0
9.629921880E-1,1.225831270E0,7.469909191E0,4.290409565E0
9.679984380E-1,1.225831270E0,8.082824707E0,4.290409565E0
9.730046880E-1,1.225831270E0,7.623138428E0,4.290409565E0
9.780093750E-1,1.187524080E0,7.623138428E0,4.290409565E0
9.829843750E-1,1.187524080E0,7.776367188E0,4.481945515E0
9.879890630E-1,1.225831270E0,7.814674377E0,4.405331135E0
9.929953130E-1,1.225831270E0,7.891288757E0,4.443638325E0
9.980000000E-1,1.264138460E0,7.852981567E0,4.865017891E0
1.003006250E0,1.302445769E0,7.852981567E0,5.018246651E0
1.008012500E0,1.264138460E0,7.699752808E0,5.363011837E0
1.012985938E0,1.225831270E0,7.584830761E0,5.669469833E0
1.017992188E0,1.072602391E0,7.584830761E0,6.052541733E0
1.022996875E0,9.959878922E-1,7.469909191E0,6.129156113E0
1.028001563E0,7.661445141E-1,7.584830761E0,6.205770969E0
1.033007813E0,7.278373241E-1,7.738059998E0,6.473921299E0
1.037982813E0,6.512228847E-1,7.814674377E0,6.627150536E0
1.042987500E0,6.895300746E-1,7.929595947E0,6.895300865E0
1.047993750E0,7.278373241E-1,7.776367188E0,6.895300865E0
1.053000000E0,8.044517636E-1,7.623138428E0,6.818686485E0
1.058004688E0,8.044517636E-1,7.508216381E0,6.703764915E0
1.063009375E0,7.278373241E-1,7.431602001E0,6.550535679E0
1.067984375E0,7.661445141E-1,7.469909191E0,6.397306919E0
1.072989063E0,8.427590132E-1,7.546523571E0,6.205770969E0
1.077995313E0,7.661445141E-1,7.661445618E0,6.129156113E0
1.083001563E0,9.193734527E-1,7.852981567E0,6.014234543E0
1.088007813E0,1.149216771E0,7.929595947E0,5.975927353E0
1.093012500E0,1.225831270E0,7.967903137E0,5.822698593E0
1.097987500E0,1.302445769E0,8.006210327E0,5.746084213E0
1.102990625E0,1.340752959E0,8.044517517E0,5.592854977E0
1.107996875E0,1.455674648E0,8.159439087E0,5.286397457E0
1.113003125E0,1.417367458E0,8.274360657E0,5.171475887E0
1.118009375E0,1.379060149E0,8.274360657E0,5.094861031E0
1.122982813E0,1.302445769E0,8.236053467E0,5.094861031E0
1.127989063E0,1.302445769E0,8.350975990E0,5.209783077E0
1.132993750E0,1.417367458E0,8.465897560E0,5.248090267E0
1.138000000E0,1.570596337E0,8.542511940E0,5.439626217E0
1.143004688E0,1.800439715E0,8.274360657E0,5.746084213E0
1.148010938E0,1.991975784E0,7.929595947E0,5.975927353E0
1.152985938E0,2.068590164E0,7.469909191E0,6.435614109E0
1.157990625E0,1.915361404E0,7.240066051E0,6.588842869E0
1.162995313E0,1.685518026E0,7.086836815E0,7.010222435E0
1.168001563E0,1.685518026E0,6.933608055E0,7.354987621E0
1.173006250E0,1.800439715E0,6.971915245E0,7.584830761E0
1.177981250E0,1.877054095E0,7.048529625E0,7.738059998E0
1.182987500E0,1.762132406E0,7.163451672E0,7.776367188E0
1.187992188E0,1.762132406E0,7.201758862E0,7.814674377E0
1.192998438E0,1.647210717E0,7.240066051E0,7.738059998E0
1.198004688E0,1.608903527E0,7.278373241E0,7.623138428E0
1.203009375E0,1.455674648E0,7.469909191E0,7.393294811E0
1.207984375E0,1.264138460E0,7.508216381E0,7.048529625E0
1.212989063E0,1.072602391E0,7.584830761E0,6.895300865E0
1.217995313E0,9.576807022E-1,7.738059998E0,6.742072105E0
1.223000000E0,8.810662031E-1,7.699752808E0,6.588842869E0
1.228006250E0,8.044517636E-1,7.508216381E0,6.435614109E0
1.233010938E0,8.044517636E-1,7.508216381E0,6.320692539E0
1.237985938E0,8.810662031E-1,7.354987621E0,6.129156113E0
1.242990625E0,1.034295082E0,7.201758862E0,5.937620163E0
1.247996875E0,1.110909581E0,7.316680431E0,5.899312973E0
1.253003125E0,1.034295082E0,7.278373241E0,5.707777023E0
1.258007813E0,1.072602391E0,7.393294811E0,5.822698593E0
1.262982813E0,6.129156351E-1,7.469909191E0,6.588842869E0
1.267989063E0,6.129156351E-1,7.469909191E0,6.588842869E0
1.272993750E0,5.363011956E-1,7.469909191E0,6.856993675E0
1.277998438E0,5.363011956E-1,7.546523571E0,6.971915245E0
1.283004688E0,5.746083856E-1,7.623138428E0,7.010222435E0
1.288009375E0,8.427590132E-1,7.584830761E0,6.971915245E0
1.292984375E0,9.576807022E-1,7.546523571E0,6.971915245E0
1.297989063E0,1.072602391E0,7.469909191E0,6.780379295E0
1.302995313E0,1.110909581E0,7.431602001E0,6.512228489E0
1.308001563E0,1.149216771E0,7.431602001E0,6.435614109E0
1.313006250E0,1.187524080E0,7.393294811E0,6.282385349E0
1.318012500E0,1.225831270E0,7.431602001E0,6.205770969E0
1.322985938E0,1.225831270E0,7.316680431E0,6.205770969E0
1.327992188E0,1.187524080E0,7.354987621E0,6.282385349E0
1.332998438E0,1.149216771E0,7.316680431E0,6.244078159E0
1.338003125E0,1.149216771E0,7.354987621E0,6.320692539E0
1.343007813E0,1.110909581E0,7.431602001E0,6.473921299E0
1.347982813E0,1.110909581E0,7.431602001E0,6.473921299E0
1.352987500E0,1.149216771E0,7.354987621E0,6.512228489E0
1.357993750E0,1.187524080E0,7.316680431E0,6.512228489E0
1.363000000E0,1.072602391E0,7.316680431E0,6.512228489E0
1.368004688E0,1.072602391E0,7.431602001E0,6.588842869E0
1.373010938E0,1.072602391E0,7.393294811E0,6.512228489E0
1.377984375E0,1.034295082E0,7.354987621E0,6.550535679E0
1.382990625E0,9.959878922E-1,7.278373241E0,6.588842869E0
1.387995313E0,1.034295082E0,7.240066051E0,6.588842869E0
1.393003125E0,1.072602391E0,7.125144482E0,6.627150536E0
1.398007813E0,1.110909581E0,7.163451672E0,6.627150536E0
1.403012500E0,1.149216771E0,7.086836815E0,6.588842869E0
1.407985938E0,1.187524080E0,7.048529625E0,6.473921299E0
1.412992188E0,1.225831270E0,7.201758862E0,6.205770969E0
1.417996875E0,1.225831270E0,7.163451672E0,6.052541733E0
1.423003125E0,1.187524080E0,7.086836815E0,5.975927353E0
1.428010938E0,1.225831270E0,7.125144482E0,5.937620163E0
1.432982813E0,1.264138460E0,7.086836815E0,5.784391403E0
1.437989063E0,1.225831270E0,7.125144482E0,5.592854977E0
1.442993750E0,1.302445769E0,7.086836815E0,5.477933407E0
1.448000000E0,1.225831270E0,7.201758862E0,5.439626217E0
1.453006250E0,1.187524080E0,7.393294811E0,5.439626217E0
1.458010938E0,1.225831270E0,7.316680431E0,5.477933407E0
1.462984375E0,1.110909581E0,7.431602001E0,5.669469833E0
1.467990625E0,1.110909581E0,7.469909191E0,5.822698593E0
1.472996875E0,1.149216771E0,7.431602001E0,5.975927353E0
1.478001563E0,1.302445769E0,7.469909191E0,6.090848923E0
1.483007813E0,1.340752959E0,7.240066051E0,6.282385349E0
1.487981250E0,1.340752959E0,7.163451672E0,6.320692539E0
1.492987500E0,1.493981838E0,7.048529625E0,6.550535679E0
1.497992188E0,1.455674648E0,7.010222435E0,6.588842869E0
1.502998438E0,1.340752959E0,7.048529625E0,6.665457726E0
1.508006250E0,1.302445769E0,7.125144482E0,6.703764915E0
1.513010938E0,1.225831270E0,7.201758862E0,6.627150536E0
1.517984375E0,1.110909581E0,7.316680431E0,6.588842869E0
1.522989063E0,9.576807022E-1,7.316680431E0,6.550535679E0
1.527995313E0,9.959878922E-1,7.354987621E0,6.512228489E0
1.533000000E0,9.959878922E-1,7.393294811E0,6.473921299E0
1.538006250E0,1.034295082E0,7.431602001E0,6.397306919E0
1.543010938E0,1.072602391E0,7.431602001E0,6.205770969E0
1.547985938E0,1.110909581E0,7.316680431E0,6.129156113E0
1.552990625E0,1.187524080E0,7.278373241E0,6.052541733E0
1.557996875E0,1.264138460E0,7.163451672E0,5.975927353E0
1.563003125E0,1.340752959E0,7.125144482E0,5.975927353E0
1.568007813E0,1.340752959E0,7.125144482E0,5.899312973E0
1.572982813E0,1.379060149E0,7.316680431E0,5.899312973E0
1.577987500E0,1.417367458E0,7.316680431E0,6.014234543E0
1.582993750E0,1.455674648E0,7.240066051E0,6.090848923E0
1.587998438E0,1.608903527E0,7.240066051E0,6.090848923E0
1.593003125E0,1.608903527E0,7.163451672E0,6.320692539E0
1.598009375E0,1.532289028E0,7.163451672E0,6.397306919E0
1.602984375E0,1.647210717E0,7.125144482E0,6.397306919E0
1.607990625E0,1.647210717E0,7.125144482E0,6.358999729E0
1.612995313E0,1.647210717E0,7.201758862E0,6.244078159E0
1.618001563E0,1.647210717E0,7.278373241E0,6.167463779E0
1.623006250E0,1.685518026E0,7.393294811E0,6.052541733E0
1.628012500E0,1.570596337E0,7.316680431E0,6.014234543E0
1.632987500E0,1.532289028E0,7.316680431E0,5.937620163E0
1.637992188E0,1.532289028E0,7.278373241E0,6.014234543E0
1.642996875E0,1.417367458E0,7.240066051E0,5.861005783E0
1.648003125E0,1.532289028E0,7.086836815E0,5.861005783E0
1.653009375E0,1.493981838E0,7.010222435E0,5.899312973E0
1.657982813E0,1.455674648E0,6.971915245E0,6.090848923E0
1.662989063E0,1.455674648E0,7.086836815E0,6.244078159E0
1.667993750E0,1.302445769E0,7.086836815E0,6.435614109E0
1.673000000E0,1.225831270E0,7.010222435E0,6.588842869E0
1.678004688E0,1.187524080E0,7.048529625E0,6.780379295E0
1.683010938E0,1.187524080E0,7.125144482E0,6.933608055E0
1.687984375E0,1.302445769E0,6.971915245E0,7.048529625E0
1.692989063E0,1.302445769E0,6.933608055E0,7.278373241E0
1.697995313E0,1.187524080E0,6.895300865E0,7.278373241E0
1.703001563E0,1.149216771E0,6.895300865E0,7.354987621E0
1.708007813E0,1.149216771E0,6.895300865E0,7.354987621E0
1.713012500E0,1.187524080E0,6.856993675E0,7.240066051E0
1.717987500E0,1.187524080E0,6.703764915E0,7.048529625E0
1.722992188E0,1.225831270E0,6.703764915E0,7.048529625E0
1.727998438E0,1.225831270E0,6.588842869E0,6.933608055E0
1.733003125E0,1.264138460E0,6.627150536E0,6.933608055E0
1.738009375E0,1.417367458E0,6.665457726E0,6.971915245E0
1.742982813E0,1.647210717E0,6.703764915E0,7.125144482E0
1.747989063E0,1.723825216E0,6.742072105E0,7.393294811E0
1.752995313E0,1.762132406E0,6.742072105E0,7.316680431E0
1.758000000E0,1.762132406E0,6.703764915E0,7.125144482E0
1.763006250E0,1.762132406E0,6.588842869E0,6.856993675E0
1.768010938E0,1.762132406E0,6.627150536E0,6.588842869E0
1.772985938E0,1.762132406E0,6.627150536E0,6.282385349E0
1.777990625E0,1.877054095E0,6.588842869E0,5.937620163E0
1.782996875E0,1.915361404E0,6.588842869E0,5.171475887E0
1.788001563E0,1.877054095E0,6.588842869E0,4.443638325E0
1.793007813E0,1.838746905E0,6.703764915E0,4.213795185E0
1.797981250E0,1.877054095E0,6.627150536E0,4.137180328E0
1.802985938E0,1.762132406E0,6.588842869E0,4.252102375E0
1.807992188E0,1.570596337E0,6.588842869E0,4.367023945E0
1.812998438E0,1.455674648E0,6.665457726E0,4.711789131E0
1.818003125E0,1.302445769E0,6.742072105E0,4.826710701E0
1.823009375E0,1.187524080E0,6.856993675E0,4.865017891E0
1.827984375E0,1.110909581E0,7.086836815E0,4.865017891E0
1.832989063E0,8.427590132E-1,7.469909191E0,4.826710701E0
1.837993750E0,6.129156351E-1,7.661445618E0,4.865017891E0
1.843000000E0,3.830722570E-1,7.738059998E0,4.826710701E0
1.848006250E0,2.298433632E-1,7.852981567E0,4.750096321E0
1.853010938E0,2.681505978E-1,7.891288757E0,4.788403511E0
1.857985938E0,3.064578176E-1,7.891288757E0,4.443638325E0
1.862990625E0,4.979939461E-1,7.891288757E0,4.520252705E0
1.867996875E0,6.895300746E-1,7.891288757E0,4.443638325E0
1.873003125E0,9.576807022E-1,7.929595947E0,4.175487995E0
1.878007813E0,1.149216771E0,7.814674377E0,3.907337189E0
1.882982813E0,1.187524080E0,7.814674377E0,3.945644379E0
1.887987500E0,8.810662031E-1,7.967903137E0,3.869029999E0
1.892993750E0,4.596867263E-1,7.929595947E0,3.983951569E0
1.898000000E0,4.596867263E-1,8.006210327E0,4.405331135E0
1.903004688E0,8.427590132E-1,8.121131897E0,4.865017891E0
1.908009375E0,1.187524080E0,8.389283180E0,5.133168221E0
1.912984375E0,1.915361404E0,8.657433510E0,4.941632271E0
1.917990625E0,2.413355350E0,8.810662270E0,4.941632271E0
1.922995313E0,2.873042107E0,8.887276649E0,5.018246651E0
1.928001563E0,3.141192675E0,8.848969460E0,5.133168221E0
1.933006250E0,3.256114244E0,8.848969460E0,5.209783077E0
1.938012500E0,3.371036053E0,8.772355080E0,5.248090267E0
1.942985938E0,3.217807055E0,8.734047890E0,5.248090267E0
1.947992188E0,3.179499865E0,8.619126320E0,5.248090267E0
1.952996875E0,3.026270866E0,8.504204750E0,5.209783077E0
1.958003125E0,2.911349297E0,8.389283180E0,5.171475887E0
1.963007813E0,2.834734917E0,8.274360657E0,5.056553841E0
1.967982813E0,2.949656487E0,8.274360657E0,5.133168221E0
1.972989063E0,3.064578056E0,8.197746277E0,5.133168221E0
1.977993750E0,3.256114244E0,8.082824707E0,5.363011837E0
1.982998438E0,3.600879431E0,8.044517517E0,5.592854977E0
1.988004688E0,3.754108191E0,7.929595947E0,5.592854977E0
1.993010938E0,3.907337189E0,7.814674377E0,5.631162167E0
1.997984375E0,3.830722809E0,7.814674377E0,5.592854977E0
2.002990625E0,3.945644379E0,7.967903137E0,5.592854977E0
2.007995313E0,3.754108191E0,8.006210327E0,5.286397457E0
2.013001563E0,3.371036053E0,8.197746277E0,5.133168221E0
2.018006250E0,3.102885485E0,8.274360657E0,4.865017891E0
2.022981250E0,2.873042107E0,8.236053467E0,4.635174274E0
2.027987500E0,2.758120298E0,8.350975990E0,4.443638325E0
2.032992188E0,2.643198729E0,8.427590370E0,4.290409565E0
2.037998438E0,2.758120298E0,8.427590370E0,4.137180328E0
2.043003125E0,2.873042107E0,8.465897560E0,3.907337189E0
2.048009375E0,2.873042107E0,8.427590370E0,3.639186621E0
2.052982813E0,2.873042107E0,8.465897560E0,3.524264812E0
2.057989063E0,2.796427488E0,8.504204750E0,3.409343243E0
2.062993750E0,2.604891539E0,8.350975990E0,3.179499865E0
2.068000000E0,2.451662540E0,8.312667847E0,3.064578056E0
2.073004688E0,2.260126352E0,8.274360657E0,2.987963676E0
2.078010938E0,2.106897593E0,8.159439087E0,3.026270866E0
2.082985938E0,2.106897593E0,8.121131897E0,3.064578056E0
2.087990625E0,2.106897593E0,8.197746277E0,3.217807055E0
2.092996875E0,2.030282974E0,8.159439087E0,3.485957623E0
2.098001563E0,2.068590164E0,8.159439087E0,3.639186621E0
2.103007813E0,2.068590164E0,8.159439087E0,4.252102375E0
2.107981250E0,1.991975784E0,8.159439087E0,3.754108191E0
2.112987500E0,1.915361404E0,8.044517517E0,3.830722809E0
2.117992188E0,1.877054095E0,8.082824707E0,3.830722809E0
2.122998438E0,1.800439715E0,8.044517517E0,3.754108191E0
2.128004688E0,1.647210717E0,7.929595947E0,3.715801001E0
2.133009375E0,1.302445769E0,7.852981567E0,3.485957623E0
2.137984375E0,1.110909581E0,7.776367188E0,3.371036053E0
2.142989063E0,8.044517636E-1,7.738059998E0,3.064578056E0
2.147995313E0,6.129156351E-1,7.738059998E0,2.911349297E0
2.153001563E0,4.979939461E-1,7.699752808E0,2.911349297E0
2.158006250E0,4.213795066E-1,7.776367188E0,3.026270866E0
2.163012500E0,3.064578176E-1,7.776367188E0,3.409343243E0
2.167985938E0,5.363011956E-1,7.891288757E0,4.252102375E0
2.172992188E0,7.278373241E-1,8.159439087E0,4.941632271E0
2.177996875E0,1.034295082E0,8.159439087E0,5.286397457E0
2.183003125E0,1.187524080E0,8.274360657E0,5.516240597E0
2.188007813E0,1.187524080E0,8.236053467E0,5.554547787E0
2.192982813E0,1.072602391E0,8.121131897E0,5.477933407E0
2.197987500E0,7.278373241E-1,8.312667847E0,5.171475887E0
2.202993750E0,5.746083856E-1,8.312667847E0,4.711789131E0
2.207998438E0,5.363011956E-1,8.236053467E0,4.290409565E0
2.213004688E0,6.129156351E-1,8.121131897E0,3.677493811E0
2.218009375E0,6.895300746E-1,8.197746277E0,3.256114244E0
2.222984375E0,7.278373241E-1,8.197746277E0,2.949656487E0
2.227990625E0,9.576807022E-1,8.312667847E0,2.566584110E0
2.232995313E0,9.959878922E-1,8.427590370E0,2.375048161E0
2.238001563E0,9.576807022E-1,8.734047890E0,2.298433542E0
2.243007813E0,1.072602391E0,8.772355080E0,2.336740971E0
2.248012500E0,1.110909581E0,8.695740700E0,2.221819162E0
2.252985938E0,8.427590132E-1,8.657433510E0,2.221819162E0
2.257992188E0,4.213795066E-1,8.772355080E0,2.604891539E0
2.262998438E0,3.447650373E-1,8.848969460E0,3.179499865E0
2.268004688E0,3.447650373E-1,8.848969460E0,3.179499865E0
2.273009375E0,3.447650373E-1,8.848969460E0,3.524264812E0
2.277982813E0,3.064578176E-1,8.810662270E0,3.830722809E0
2.282989063E0,2.298433632E-1,8.810662270E0,3.830722809E0
2.287993750E0,1.915361285E-1,8.580819130E0,3.907337189E0
2.293000000E0,1.532289088E-1,8.427590370E0,3.830722809E0
2.298004688E0,3.830722719E-2,8.389283180E0,3.792415380E0
2.303010938E0,0.000000000E0,8.312667847E0,3.600879431E0
2.307985938E0,-7.661445439E-2,8.159439087E0,3.485957623E0
2.312990625E0,7.661445439E-2,7.738059998E0,3.371036053E0
2.317995313E0,0.000000000E0,7.776367188E0,3.294421434E0
2.323001563E0,-1.149216816E-1,7.776367188E0,3.217807055E0
2.328007813E0,-3.064578176E-1,7.814674377E0,3.179499865E0
2.332981250E0,-5.363011956E-1,7.967903137E0,3.409343243E0
2.337987500E0,-6.512228847E-1,7.967903137E0,3.600879431E0
2.342992188E0,-7.278373241E-1,7.738059998E0,3.754108191E0
2.347998438E0,-8.427590132E-1,7.546523571E0,3.600879431E0
2.353004688E0,-9.576807022E-1,7.278373241E0,3.409343243E0
2.358009375E0,-1.034295082E0,7.163451672E0,3.102885485E0
2.362982813E0,-1.187524080E0,7.125144482E0,2.719813108E0
2.367989063E0,-1.417367458E0,7.010222435E0,2.528276920E0
2.372993750E0,-1.532289028E0,6.971915245E0,2.298433542E0
2.378000000E0,-1.417367458E0,6.780379295E0,2.145204782E0
2.383006250E0,-1.340752959E0,6.627150536E0,2.106897593E0
2.388010938E0,-1.647210717E0,6.244078159E0,3.064578056E0
2.392985938E0,-1.264138460E0,6.205770969E0,3.371036053E0
2.397990625E0,-3.447650373E-1,6.320692539E0,3.409343243E0
2.402996875E0,5.363011956E-1,6.320692539E0,3.217807055E0
2.408001563E0,9.959878922E-1,6.014234543E0,3.332728863E0
2.413007813E0,9.959878922E-1,5.746084213E0,3.677493811E0
2.417981250E0,1.034295082E0,5.209783077E0,3.754108191E0
2.422987500E0,1.264138460E0,4.596867085E0,3.754108191E0
2.427993750E0,1.225831270E0,4.060565948E0,3.907337189E0
2.432998438E0,9.959878922E-1,3.869029999E0,4.213795185E0
2.438003125E0,6.895300746E-1,3.677493811E0,4.596867085E0
2.443009375E0,3.830722570E-1,3.677493811E0,5.248090267E0
2.447982813E0,1.149216816E-1,3.792415380E0,5.975927353E0
2.452989063E0,3.830722719E-2,3.754108191E0,6.818686485E0
2.457995313E0,1.149216816E-1,3.869029999E0,7.393294811E0
2.463001563E0,3.830722570E-1,4.022258759E0,7.967903137E0
2.468006250E0,8.427590132E-1,4.328716755E0,8.427590370E0
2.473012500E0,1.340752959E0,4.520252705E0,8.925583839E0
2.477985938E0,1.340752959E0,4.520252705E0,9.615114212E0
2.482990625E0,1.877054095E0,4.635174274E0,9.615114212E0
2.487996875E0,2.298433542E0,4.750096321E0,1.057279491E1
2.493003125E0,2.873042107E0,4.865017891E0,1.160709000E1
2.498007813E0,3.256114244E0,4.903325081E0,1.279461384E1
2.502982813E0,3.562572241E0,5.056553841E0,1.386721611E1
2.507987500E0,3.600879431E0,5.094861031E0,1.451843929E1
2.512993750E0,3.332728863E0,5.248090267E0,1.440351772E1
2.518000000E0,2.681505919E0,5.209783077E0,1.402044487E1
2.523004688E0,2.030282974E0,5.018246651E0,1.436521053E1
2.528009375E0,1.685518026E0,5.056553841E0,1.505473995E1
2.532984375E0,1.264138460E0,5.592854977E0,1.528458405E1
2.537990625E0,1.187524080E0,6.205770969E0,1.589749908E1
2.542995313E0,1.340752959E0,6.780379295E0,1.620395660E1
2.548001563E0,1.570596337E0,7.393294811E0,1.635718536E1
2.553006250E0,1.723825216E0,8.159439087E0,1.635718536E1
2.558012500E0,1.762132406E0,8.810662270E0,1.631887817E1
2.562985938E0,1.953668594E0,9.500192642E0,1.608903503E1
2.567992188E0,2.221819162E0,1.011310768E1,1.574427032E1
2.572996875E0,2.451662540E0,1.080263805E1,1.520796967E1
2.578003125E0,2.604891539E0,1.137724686E1,1.451843929E1
2.583009375E0,2.681505919E0,1.187524033E1,1.390552330E1
2.587982813E0,2.719813108E0,1.237323475E1,1.321599293E1
2.592989063E0,2.643198729E0,1.267969227E1,1.252646351E1
2.597993750E0,2.489969730E0,1.287122822E1,1.206677628E1
2.603000000E0,2.260126352E0,1.298614979E1,1.195185471E1
2.608004688E0,2.183511972E0,1.310107136E1,1.191354752E1
2.613010938E0,1.953668594E0,1.313937855E1,1.225831223E1
2.617984375E0,1.800439715E0,1.290953541E1,1.267969227E1
2.622990625E0,1.532289028E0,1.271799946E1,1.294784260E1
2.627996875E0,1.340752959E0,1.260307789E1,1.317768574E1
2.633003125E0,1.225831270E0,1.233492756E1,1.336922264E1
2.638007813E0,8.810662031E-1,1.202846909E1,1.336922264E1
2.642981250E0,6.129156351E-1,1.156878281E1,1.317768574E1
2.647987500E0,4.596867263E-1,1.114740276E1,1.279461384E1
2.652992188E0,2.298433632E-1,1.076433086E1,1.229662037E1
2.657998438E0,-7.661445439E-2,1.061110210E1,1.172201157E1
2.663004688E0,-3.830722570E-1,1.041956615E1,1.126232433E1
2.668009375E0,-8.427590132E-1,1.018972206E1,1.076433086E1
2.672984375E0,-1.340752959E0,9.921571732E0,1.011310768E1
2.677989063E0,-1.685518026E0,9.768342972E0,9.423578262E0
2.682993750E0,-2.183511972E0,9.653421402E0,8.236053467E0
2.688000000E0,-2.298433542E0,9.461885452E0,6.856993675E0
2.693006250E0,-2.949656487E0,8.848969460E0,5.209783077E0
2.698010938E0,-3.294421434E0,8.657433510E0,3.754108191E0
2.702985938E0,-2.949656487E0,8.810662270E0,2.183511972E0
2.707990625E0,-2.375048161E0,8.925583839E0,8.427590132E-1
2.712996875E0,-1.877054095E0,9.040505409E0,-1.915361285E-1
2.718001563E0,-1.493981838E0,8.810662270E0,-1.072602391E0
2.723007813E0,-1.149216771E0,8.350975990E0,-1.455674648E0
2.727982813E0,-8.427590132E-1,7.776367188E0,-1.302445769E0
2.732987500E0,-4.979939461E-1,7.316680431E0,-7.661445141E-1
2.737993750E0,-1.915361285E-1,6.856993675E0,1.532289088E-1
2.742998438E0,1.915361285E-1,6.435614109E0,1.149216771E0
2.748004688E0,3.447650373E-1,6.090848923E0,2.413355350E0
2.753009375E0,3.447650373E-1,5.822698593E0,3.715801001E0
2.757984375E0,1.915361285E-1,5.669469833E0,4.865017891E0
2.762990625E0,3.830722719E-2,5.554547787E0,5.746084213E0
2.767995313E0,3.830722719E-2,5.477933407E0,6.703764915E0
2.773001563E0,1.149216816E-1,5.516240597E0,7.431602001E0
2.778006250E0,1.915361285E-1,5.439626217E0,7.967903137E0
2.783012500E0,3.447650373E-1,5.286397457E0,8.504204750E0
2.787985938E0,6.895300746E-1,4.865017891E0,8.925583839E0
2.792992188E0,8.044517636E-1,4.520252705E0,9.232041359E0
2.797996875E0,6.512228847E-1,4.520252705E0,8.350975990E0
2.803003125E0,8.427590132E-1,4.443638325E0,7.278373241E0
2.808007813E0,1.034295082E0,4.596867085E0,6.703764915E0
2.812982813E0,1.072602391E0,4.635174274E0,6.397306919E0
2.817989063E0,7.661445141E-1,4.405331135E0,5.975927353E0
2.822993750E0,-2.681505978E-1,4.137180328E0,5.516240597E0
2.827998438E0,-1.225831270E0,3.907337189E0,5.248090267E0
2.833006250E0,-1.647210717E0,3.983951569E0,5.401319027E0
2.838009375E0,-1.493981838E0,4.175487995E0,5.784391403E0
2.842984375E0,-8.427590132E-1,4.520252705E0,6.282385349E0
2.847990625E0,-1.532289088E-1,4.750096321E0,6.971915245E0
2.852995313E0,4.979939461E-1,4.558559895E0,7.584830761E0
2.858001563E0,4.979939461E-1,3.945644379E0,8.082824707E0
2.863006250E0,9.959878922E-1,4.252102375E0,8.082824707E0
2.868012500E0,1.110909581E0,3.907337189E0,8.236053467E0
2.872987500E0,1.072602391E0,3.945644379E0,8.312667847E0
2.877992188E0,9.959878922E-1,3.983951569E0,8.619126320E0
2.882996875E0,9.193734527E-1,4.328716755E0,9.040505409E0
2.888003125E0,6.895300746E-1,4.635174274E0,9.921571732E0
2.893009375E0,-4.596867263E-1,5.286397457E0,1.164539719E1
2.897982813E0,-1.072602391E0,5.707777023E0,1.222000504E1
2.902989063E0,-5.746083856E-1,5.324704647E0,1.222000504E1
2.907993750E0,7.661445439E-2,5.209783077E0,1.256477070E1
2.913000000E0,5.746083856E-1,5.477933407E0,1.279461384E1
2.918004688E0,8.044517636E-1,5.975927353E0,1.306276417E1
2.923010938E0,9.959878922E-1,6.435614109E0,1.313937855E1
2.927984375E0,1.187524080E0,7.125144482E0,1.294784260E1
2.932990625E0,1.149216771E0,7.852981567E0,1.248815632E1
2.937995313E0,8.810662031E-1,8.389283180E0,1.214339066E1
2.943001563E0,6.129156351E-1,8.810662270E0,1.176031876E1
2.948006250E0,5.363011956E-1,8.963891029E0,1.141555405E1
2.952982813E0,7.661445141E-1,8.963891029E0,1.087925243E1
2.957987500E0,8.044517636E-1,8.887276649E0,1.045787334E1
2.962992188E0,6.512228847E-1,8.963891029E0,9.959878922E0
2.967998438E0,3.830722570E-1,9.346963882E0,9.500192642E0
2.973004688E0,-2.298433632E-1,9.768342972E0,8.810662270E0
2.978009375E0,-1.187524080E0,1.049618053E1,8.274360657E0
2.982984375E0,-2.260126352E0,1.141555405E1,7.967903137E0
2.987989063E0,-3.102885485E0,1.210508347E1,7.852981567E0
2.992993750E0,-3.485957623E0,1.241154194E1,7.929595947E0
2.998000000E0,-3.447650433E0,1.214339066E1,7.929595947E0
3.003006250E0,-3.332728863E0,1.137724686E1,8.197746277E0
3.008012500E0,-3.754108191E0,9.653421402E0,8.925583839E0
3.012985938E0,-3.485957623E0,7.623138428E0,1.015141487E1
3.017990625E0,-1.762132406E0,6.205770969E0,1.076433086E1
3.022996875E0,6.512228847E-1,5.171475887E0,1.095586681E1
3.028003125E0,2.719813108E0,4.711789131E0,1.118570995E1
3.033007813E0,4.558559895E0,4.596867085E0,1.156878281E1
3.037982813E0,5.248090267E0,4.443638325E0,1.168370438E1
3.042987500E0,4.673481941E0,3.983951569E0,1.141555405E1
3.047993750E0,3.485957623E0,3.562572241E0,1.080263805E1
3.053000000E0,2.413355350E0,3.102885485E0,9.653421402E0
3.058004688E0,1.877054095E0,2.987963676E0,8.542511940E0
3.063009375E0,1.762132406E0,2.911349297E0,7.469909191E0
3.067984375E0,1.723825216E0,2.758120298E0,6.742072105E0
3.072990625E0,1.762132406E0,2.604891539E0,6.129156113E0
3.077995313E0,1.838746905E0,2.183511972E0,5.554547787E0
3.083001563E0,1.838746905E0,1.608903527E0,5.248090267E0
3.088006250E0,1.915361404E0,8.810662031E-1,5.363011837E0
3.093012500E0,2.068590164E0,4.213795066E-1,5.707777023E0
3.097985938E0,2.145204782E0,1.532289088E-1,6.244078159E0
3.102992188E0,2.413355350E0,1.532289088E-1,6.588842869E0
3.107996875E0,3.102885485E0,3.830722719E-2,6.473921299E0
3.113003125E0,4.290409565E0,-3.830722570E-1,6.435614109E0
3.118007813E0,5.822698593E0,-9.193734527E-1,6.933608055E0
3.122982813E0,7.086836815E0,-1.302445769E0,6.971915245E0
3.127989063E0,7.738059998E0,-1.647210717E0,7.354987621E0
3.132993750E0,7.738059998E0,-1.762132406E0,8.580819130E0
3.138000000E0,7.546523571E0,-1.417367458E0,9.768342972E0
3.143004688E0,7.508216381E0,-8.044517636E-1,1.034295177E1
3.148010938E0,7.661445618E0,-4.979939461E-1,1.038125896E1
3.152984375E0,7.891288757E0,-2.681505978E-1,1.011310768E1
3.157990625E0,8.006210327E0,-2.298433632E-1,9.538499832E0
3.162995313E0,7.891288757E0,-7.661445439E-2,8.734047890E0
3.168001563E0,7.623138428E0,1.915361285E-1,7.661445618E0
3.173007813E0,7.278373241E0,6.895300746E-1,6.244078159E0
3.178012500E0,6.933608055E0,9.959878922E-1,4.596867085E0
3.182985938E0,6.588842869E0,1.340752959E0,3.026270866E0
3.187992188E0,6.282385349E0,1.493981838E0,1.723825216E0
3.192998438E0,5.937620163E0,1.647210717E0,6.512228847E-1
3.198003125E0,5.477933407E0,1.800439715E0,-1.149216816E-1
3.203009375E0,5.133168221E0,2.106897593E0,-5.746083856E-1
3.207982813E0,4.979939461E0,2.298433542E0,-6.895300746E-1
3.212989063E0,5.248090267E0,2.528276920E0,-3.830722570E-1
3.217993750E0,5.592854977E0,2.796427488E0,1.149216816E-1
3.223000000E0,5.975927353E0,2.911349297E0,6.895300746E-1
3.228006250E0,6.397306919E0,3.141192675E0,1.340752959E0
3.233010938E0,6.397306919E0,3.141192675E0,1.953668594E0
3.237985938E0,6.780379295E0,3.294421434E0,2.145204782E0
3.242990625E0,6.895300865E0,3.562572241E0,3.141192675E0
3.247996875E0,6.703764915E0,3.754108191E0,4.367023945E0
3.253001563E0,6.358999729E0,4.022258759E0,6.052541733E0
3.258007813E0,5.669469833E0,4.290409565E0,7.738059998E0
3.262982813E0,3.945644379E0,4.979939461E0,1.126232433E1
3.267987500E0,3.945644379E0,4.979939461E0,1.126232433E1
3.272993750E0,3.026270866E0,5.477933407E0,1.290953541E1
3.278000000E0,1.991975784E0,5.975927353E0,1.448013210E1
3.283004688E0,1.187524080E0,6.588842869E0,1.585919189E1
3.288009375E0,5.746083856E-1,7.201758862E0,1.700840950E1
3.292982813E0,1.915361285E-1,7.929595947E0,1.819593239E1
3.297989063E0,7.661445439E-2,8.542511940E0,1.907699966E1
3.302993750E0,1.149216816E-1,9.155426979E0,1.926853561E1
3.308001563E0,1.532289088E-1,9.730035782E0,1.888546371E1
3.313006250E0,3.064578176E-1,1.038125896E1,1.800439644E1
3.318010938E0,5.746083856E-1,1.095586681E1,1.708502388E1
3.322985938E0,8.810662031E-1,1.126232433E1,1.608903503E1
3.327992188E0,1.072602391E0,1.122401714E1,1.482489681E1
3.332996875E0,1.149216771E0,1.114740276E1,1.336922264E1
3.338001563E0,1.149216771E0,1.099417400E1,1.199016190E1
3.343007813E0,1.072602391E0,1.049618053E1,1.061110210E1
3.347981250E0,1.187524080E0,9.844957352E0,9.346963882E0
3.352987500E0,1.493981838E0,8.772355080E0,8.044517517E0
3.357993750E0,1.608903527E0,7.661445618E0,7.240066051E0
3.362998438E0,1.340752959E0,6.703764915E0,6.397306919E0
3.368004688E0,6.129156351E-1,6.014234543E0,5.784391403E0
3.373010938E0,-8.427590132E-1,5.707777023E0,4.941632271E0
3.377984375E0,-2.873042107E0,5.746084213E0,3.830722809E0
3.382989063E0,-4.290409565E0,5.822698593E0,2.604891539E0
3.387995313E0,-4.673481941E0,5.784391403E0,1.608903527E0
3.393000000E0,-4.137180328E0,5.975927353E0,4.596867263E-1
3.398006250E0,-2.987963676E0,6.167463779E0,-2.681505978E-1
3.403012500E0,-1.723825216E0,6.320692539E0,-4.979939461E-1
3.407985938E0,-6.129156351E-1,6.512228489E0,-2.298433632E-1
3.412992188E0,4.596867263E-1,6.550535679E0,9.959878922E-1
3.417996875E0,1.302445769E0,6.473921299E0,2.719813108E0
3.423003125E0,1.915361404E0,6.320692539E0,4.788403511E0
3.428007813E0,2.298433542E0,5.746084213E0,7.240066051E0
3.432982813E0,2.298433542E0,5.363011837E0,9.883264542E0
3.437989063E0,1.800439715E0,5.056553841E0,1.225831223E1
3.442993750E0,1.532289028E0,4.481945515E0,1.398213768E1
3.448000000E0,1.340752959E0,3.907337189E0,1.513135433E1
3.453004688E0,1.225831270E0,3.141192675E0,1.566765594E1
3.458010938E0,1.225831270E0,2.604891539E0,1.543781281E1
3.462984375E0,1.264138460E0,2.413355350E0,1.459505367E1
3.467989063E0,1.187524080E0,2.566584110E0,1.325430107E1
3.472995313E0,1.187524080E0,2.987963676E0,1.156878281E1
3.478001563E0,1.379060149E0,3.371036053E0,1.011310768E1
3.483006250E0,1.647210717E0,3.715801001E0,8.580819130E0
3.487981250E0,1.953668594E0,3.869029999E0,7.278373241E0
3.492985938E0,2.068590164E0,4.175487995E0,6.014234543E0
3.497992188E0,2.068590164E0,4.328716755E0,5.133168221E0
3.502998438E0,1.877054095E0,4.558559895E0,4.367023945E0
3.508003125E0,1.570596337E0,4.941632271E0,4.022258759E0
3.513009375E0,1.110909581E0,5.401319027E0,3.600879431E0
3.517982813E0,4.979939461E-1,5.937620163E0,3.217807055E0
3.522989063E0,-2.298433632E-1,6.282385349E0,2.489969730E0
3.527993750E0,-8.427590132E-1,6.550535679E0,2.298433542E0
3.533000000E0,-1.187524080E0,6.703764915E0,2.489969730E0
3.538006250E0,-1.455674648E0,6.856993675E0,3.064578056E0
3.543010938E0,-1.532289028E0,6.933608055E0,3.945644379E0
3.547984375E0,-1.647210717E0,6.933608055E0,4.865017891E0
3.552992188E0,-1.570596337E0,6.856993675E0,5.746084213E0
3.557995313E0,-1.532289028E0,6.703764915E0,6.742072105E0
3.563001563E0,-1.302445769E0,6.627150536E0,7.584830761E0
3.568007813E0,-1.034295082E0,6.742072105E0,8.427590370E0
3.572981250E0,-8.044517636E-1,6.895300865E0,9.155426979E0
3.577987500E0,-4.213795066E-1,7.125144482E0,9.883264542E0
3.582992188E0,7.661445439E-2,7.393294811E0,1.049618053E1
3.587998438E0,5.746083856E-1,7.623138428E0,1.076433086E1
3.593003125E0,9.576807022E-1,8.006210327E0,1.084094524E1
3.598009375E0,1.187524080E0,8.350975990E0,1.084094524E1
3.602984375E0,1.187524080E0,8.695740700E0,1.068771648E1
3.607989063E0,1.110909581E0,8.695740700E0,1.007480049E1
3.612993750E0,7.661445141E-1,9.155426979E0,1.026633644E1
3.618000000E0,1.149216816E-1,9.461885452E0,9.385271072E0
3.623006250E0,-7.278373241E-1,9.730035782E0,8.236053467E0
3.628010938E0,-1.608903527E0,1.007480049E1,7.163451672E0
3.632985938E0,-2.375048161E0,1.041956615E1,6.167463779E0
3.637990625E0,-2.949656487E0,1.072602367E1,5.516240597E0
3.642996875E0,-3.485957623E0,1.091755962E1,5.056553841E0
3.648003125E0,-3.754108191E0,1.087925243E1,5.056553841E0
3.653007813E0,-3.869029999E0,1.095586681E1,5.784391403E0
3.657982813E0,-3.639186621E0,1.087925243E1,7.048529625E0
3.662987500E0,-3.217807055E0,1.061110210E1,8.772355080E0
3.667992188E0,-2.528276920E0,1.011310768E1,1.087925243E1
3.673000000E0,-1.570596337E0,9.385271072E0,1.283292103E1
3.678004688E0,-6.512228847E-1,8.465897560E0,1.448013210E1
3.683009375E0,3.064578176E-1,7.546523571E0,1.562934875E1
3.687984375E0,1.340752959E0,6.780379295E0,1.616564941E1
3.692989063E0,2.413355350E0,6.090848923E0,1.597411346E1
3.697995313E0,3.447650433E0,5.631162167E0,1.493981838E1
3.703001563E0,4.213795185E0,5.439626217E0,1.313937855E1
3.708006250E0,4.481945515E0,5.363011837E0,1.114740276E1
3.713012500E0,4.520252705E0,5.401319027E0,9.002198219E0
3.717985938E0,4.328716755E0,5.324704647E0,7.010222435E0
3.722992188E0,4.022258759E0,5.209783077E0,5.439626217E0
3.727996875E0,3.639186621E0,5.094861031E0,4.328716755E0
3.733003125E0,3.409343243E0,4.673481941E0,3.639186621E0
3.738007813E0,3.064578056E0,4.328716755E0,3.485957623E0
3.742982813E0,2.681505919E0,4.060565948E0,3.945644379E0
3.747989063E0,2.298433542E0,3.677493811E0,4.711789131E0
3.752993750E0,2.030282974E0,3.179499865E0,5.516240597E0
3.758000000E0,1.838746905E0,2.796427488E0,6.512228489E0
3.763004688E0,1.800439715E0,2.375048161E0,7.240066051E0
3.768010938E0,2.030282974E0,1.915361404E0,8.006210327E0
3.772984375E0,2.298433542E0,1.417367458E0,8.657433510E0
3.777990625E0,2.604891539E0,9.193734527E-1,9.117119789E0
3.782995313E0,2.987963676E0,4.979939461E-1,9.308655739E0
3.788001563E0,3.371036053E0,3.064578176E-1,9.423578262E0
3.793007813E0,3.792415380E0,1.532289088E-1,9.385271072E0
3.797981250E0,4.098873138E0,1.149216816E-1,9.346963882E0
3.802985938E0,4.405331135E0,7.661445439E-2,9.193734169E0
3.807992188E0,4.596867085E0,1.149216816E-1,8.963891029E0
3.812998438E0,4.750096321E0,1.915361285E-1,8.657433510E0
3.818003125E0,4.903325081E0,3.064578176E-1,8.236053467E0
3.823009375E0,5.171475887E0,3.830722570E-1,7.699752808E0
3.827982813E0,5.401319027E0,4.596867263E-1,7.125144482E0
3.832989063E0,5.669469833E0,3.830722570E-1,6.588842869E0
3.837993750E0,5.707777023E0,4.213795066E-1,6.052541733E0
3.843000000E0,5.554547787E0,3.830722570E-1,5.401319027E0
3.848006250E0,5.363011837E0,4.213795066E-1,4.941632271E0
3.853010938E0,5.094861031E0,3.447650373E-1,4.405331135E0
3.857985938E0,4.903325081E0,3.830722570E-1,4.098873138E0
3.862990625E0,4.520252705E0,3.830722570E-1,3.983951569E0
3.867995313E0,4.290409565E0,2.681505978E-1,3.830722809E0
3.873003125E0,3.983951569E0,1.532289088E-1,3.715801001E0
3.878007813E0,3.715801001E0,1.149216816E-1,3.715801001E0
3.882981250E0,3.332728863E0,3.830722719E-2,3.945644379E0
3.887987500E0,3.102885485E0,2.298433632E-1,4.711789131E0
3.892992188E0,3.026270866E0,6.895300746E-1,5.554547787E0
3.897998438E0,3.026270866E0,1.072602391E0,6.588842869E0
3.903003125E0,3.179499865E0,1.685518026E0,7.852981567E0
3.908009375E0,3.600879431E0,2.298433542E0,9.385271072E0
3.912984375E0,4.022258759E0,2.873042107E0,1.114740276E1
3.917989063E0,4.596867085E0,3.141192675E0,1.279461384E1
3.922995313E0,5.401319027E0,3.639186621E0,1.421198082E1
3.928001563E0,6.358999729E0,3.945644379E0,1.505473995E1
3.933006250E0,7.201758862E0,4.137180328E0,1.524627686E1
3.938010938E0,7.852981567E0,4.520252705E0,1.455674648E1
3.942985938E0,8.006210327E0,4.711789131E0,1.306276417E1
3.947992188E0,7.814674377E0,5.248090267E0,1.099417400E1
3.952996875E0,7.125144482E0,5.822698593E0,8.465897560E0
3.958003125E0,6.244078159E0,6.588842869E0,5.822698593E0
3.963007813E0,5.209783077E0,7.354987621E0,3.409343243E0
3.967982813E0,4.022258759E0,8.274360657E0,1.379060149E0
3.972987500E0,2.719813108E0,9.078812599E0,-1.915361285E-1
3.977993750E0,1.608903527E0,9.730035782E0,-1.225831270E0
3.983000000E0,3.830722570E-1,1.030464458E1,-1.608903527E0
3.988004688E0,5.363011956E-1,1.030464458E1,-1.608903527E0
3.993010938E0,-3.447650373E-1,1.087925243E1,-1.379060149E0
3.997984375E0,-9.959878922E-1,1.122401714E1,-8.427590132E-1
4.002989063E0,-1.493981838E0,1.153047562E1,3.830722719E-2
4.007995313E0,-1.723825216E0,1.172201157E1,9.576807022E-1
4.013001563E0,-1.838746905E0,1.179862595E1,2.068590164E0
4.018006250E0,-1.685518026E0,1.156878281E1,3.102885485E0
4.023012500E0,-1.493981838E0,1.110909557E1,4.060565948E0
4.027987500E0,-1.110909581E0,1.057279491E1,4.941632271E0
4.032993750E0,-6.512228847E-1,1.007480049E1,5.477933407E0
4.037996875E0,-2.298433632E-1,9.500192642E0,5.784391403E0
4.043003125E0,7.661445439E-2,9.117119789E0,5.746084213E0
4.048009375E0,2.681505978E-1,8.925583839E0,5.439626217E0
4.052982813E0,4.213795066E-1,8.580819130E0,5.133168221E0
4.057989063E0,4.979939461E-1,8.121131897E0,4.635174274E0
4.062993750E0,4.979939461E-1,7.738059998E0,3.983951569E0
4.068000000E0,4.596867263E-1,7.393294811E0,3.524264812E0
4.073006250E0,4.596867263E-1,7.010222435E0,2.911349297E0
4.078010938E0,3.447650373E-1,6.665457726E0,2.413355350E0
4.082984375E0,4.596867263E-1,6.397306919E0,1.723825216E0
4.087990625E0,5.363011956E-1,6.167463779E0,1.417367458E0
4.092995313E0,5.746083856E-1,5.975927353E0,1.264138460E0
4.098001563E0,6.895300746E-1,5.669469833E0,9.576807022E-1
4.103007813E0,8.810662031E-1,5.516240597E0,1.110909581E0
4.107982813E0,1.034295082E0,5.363011837E0,1.493981838E0
4.112987500E0,1.149216771E0,5.248090267E0,1.877054095E0
4.117992188E0,1.302445769E0,5.171475887E0,2.528276920E0
4.122998438E0,1.379060149E0,4.941632271E0,3.102885485E0
4.128003125E0,1.149216771E0,4.635174274E0,3.600879431E0
4.133010938E0,8.810662031E-1,4.481945515E0,3.983951569E0
4.137984375E0,6.512228847E-1,4.443638325E0,4.213795185E0
4.142989063E0,4.596867263E-1,4.252102375E0,4.098873138E0
4.147993750E0,1.149216816E-1,4.175487995E0,3.715801001E0
4.153001563E0,-7.661445439E-2,4.137180328E0,3.256114244E0
4.158006250E0,-4.596867263E-1,4.290409565E0,2.719813108E0
4.163010938E0,-8.044517636E-1,4.481945515E0,2.221819162E0
4.167985938E0,-9.193734527E-1,4.750096321E0,1.685518026E0
4.172990625E0,-1.110909581E0,5.056553841E0,1.264138460E0
4.177996875E0,-1.187524080E0,5.248090267E0,9.959878922E-1
4.183003125E0,-1.264138460E0,5.439626217E0,8.044517636E-1
4.188007813E0,-1.493981838E0,5.669469833E0,6.895300746E-1
4.192982813E0,-1.685518026E0,5.899312973E0,7.278373241E-1
4.197987500E0,-1.915361404E0,6.052541733E0,1.187524080E0
4.202992188E0,-2.298433542E0,6.052541733E0,2.068590164E0
4.208000000E0,-3.102885485E0,6.090848923E0,3.217807055E0
4.213004688E0,-4.098873138E0,6.129156113E0,4.481945515E0
4.218010938E0,-4.826710701E0,6.320692539E0,5.746084213E0
4.222984375E0,-4.941632271E0,6.435614109E0,6.742072105E0
4.227989063E0,-4.750096321E0,6.435614109E0,7.546523571E0
4.232995313E0,-4.367023945E0,5.707777023E0,8.312667847E0
4.238001563E0,-4.596867085E0,5.439626217E0,9.461885452E0
4.243006250E0,-4.405331135E0,5.707777023E0,1.072602367E1
4.248010938E0,-3.945644379E0,6.550535679E0,1.233492756E1
4.252985938E0,-3.371036053E0,7.354987621E0,1.482489681E1
4.257992188E0,-2.987963676E0,8.427590370E0,1.689348793E1
4.262998438E0,-2.911349297E0,1.007480049E1,1.911530685E1
4.268003125E0,-2.911349297E0,1.007480049E1,1.911530685E1
4.273026563E0,-3.102885485E0,1.053448772E1,1.930684280E1
4.277982813E0,-3.677493811E0,1.103248119E1,1.861731148E1
4.282989063E0,-4.788403511E0,1.183693314E1,1.788947487E1
4.287993750E0,-5.746084213E0,1.264138508E1,1.674025917E1
4.293000000E0,-6.588842869E0,1.344583702E1,1.543781281E1
4.298004688E0,-7.125144482E0,1.375229454E1,1.394383049E1
4.303010938E0,-7.393294811E0,1.402044487E1,1.237323475E1
4.307984375E0,-7.469909191E0,1.394383049E1,1.041956615E1
4.312989063E0,-7.316680431E0,1.356075859E1,8.925583839E0
4.317995313E0,-6.397306919E0,1.279461384E1,7.354987621E0
4.323001563E0,-4.481945515E0,1.183693314E1,5.784391403E0
4.328006250E0,-1.647210717E0,1.061110210E1,4.673481941E0
4.333012500E0,1.532289028E0,9.078812599E0,4.596867085E0
4.337987500E0,4.520252705E0,7.546523571E0,5.861005783E0
4.342992188E0,6.665457726E0,6.397306919E0,7.393294811E0
4.347996875E0,8.159439087E0,5.477933407E0,8.619126320E0
4.353003125E0,8.963891029E0,4.635174274E0,9.385271072E0
4.358009375E0,8.925583839E0,3.945644379E0,9.576807022E0
4.362982813E0,8.925583839E0,3.945644379E0,9.576807022E0
4.367989063E0,8.657433510E0,3.026270866E0,9.653421402E0
4.372993750E0,7.967903137E0,1.953668594E0,9.730035782E0
4.378000000E0,6.933608055E0,8.427590132E-1,9.844957352E0
4.383006250E0,5.401319027E0,1.532289088E-1,9.844957352E0
4.388010938E0,3.447650433E0,-7.661445439E-2,9.500192642E0
4.392985938E0,2.068590164E0,-2.681505978E-1,9.040505409E0
4.397990625E0,1.187524080E0,-5.363011956E-1,8.542511940E0
4.402995313E0,6.129156351E-1,-8.427590132E-1,8.427590370E0
4.408001563E0,2.298433632E-1,-9.576807022E-1,8.504204750E0
4.413007813E0,1.532289088E-1,-1.264138460E0,9.078812599E0
4.417981250E0,5.363011956E-1,-1.264138460E0,1.030464458E1
4.422987500E0,1.225831270E0,-1.264138460E0,1.210508347E1
4.427992188E0,2.068590164E0,-1.225831270E0,1.402044487E1
4.432998438E0,2.834734917E0,-1.110909581E0,1.539950562E1
4.438004688E0,3.447650433E0,-1.264138460E0,1.628057098E1
4.443009375E0,3.600879431E0,-1.685518026E0,1.662533569E1
4.447982813E0,3.945644379E0,-2.336740971E0,1.689348793E1
4.452989063E0,4.635174274E0,-3.371036053E0,1.674025917E1
4.457993750E0,5.592854977E0,-4.367023945E0,1.639549255E1
4.463000000E0,6.435614109E0,-5.171475887E0,1.566765594E1
4.468006250E0,7.393294811E0,-5.784391403E0,1.478658962E1
4.473010938E0,8.350975990E0,-6.244078159E0,1.325430107E1
4.477985938E0,9.040505409E0,-6.588842869E0,1.145386124E1
4.482990625E0,9.500192642E0,-6.435614109E0,9.730035782E0
4.487996875E0,9.232041359E0,-5.784391403E0,8.159439087E0
4.493003125E0,8.159439087E0,-5.094861031E0,6.627150536E0
4.498007813E0,6.856993675E0,-4.750096321E0,5.554547787E0
4.502981250E0,6.167463779E0,-4.060565948E0,5.056553841E0
4.507987500E0,5.363011837E0,-3.217807055E0,5.324704647E0
4.512993750E0,4.596867085E0,-2.375048161E0,6.014234543E0
4.517998438E0,4.137180328E0,-1.915361404E0,6.550535679E0
4.523004688E0,3.830722809E0,-1.800439715E0,7.010222435E0
4.528010938E0,3.371036053E0,-1.877054095E0,7.354987621E0
4.532984375E0,3.026270866E0,-1.838746905E0,7.469909191E0
4.537989063E0,2.834734917E0,-1.608903527E0,7.201758862E0
4.542993750E0,2.643198729E0,-1.149216771E0,6.588842869E0
4.548001563E0,2.719813108E0,-6.512228847E-1,5.631162167E0
4.553006250E0,2.949656487E0,-3.830722719E-2,4.367023945E0
4.558010938E0,3.639186621E0,5.746083856E-1,3.256114244E0
4.562985938E0,4.137180328E0,1.187524080E0,2.298433542E0
4.567992188E0,4.252102375E0,1.877054095E0,1.532289028E0
4.572996875E0,4.213795185E0,2.451662540E0,8.810662031E-1
4.578003125E0,3.907337189E0,3.179499865E0,6.512228847E-1
4.583007813E0,3.294421434E0,4.060565948E0,8.044517636E-1
4.587982813E0,2.758120298E0,4.865017891E0,1.110909581E0
4.592987500E0,2.566584110E0,5.477933407E0,1.762132406E0
4.597993750E0,2.336740971E0,6.129156113E0,2.873042107E0
4.603000000E0,1.838746905E0,6.895300865E0,4.596867085E0
4.608004688E0,1.072602391E0,7.891288757E0,6.742072105E0
4.613010938E0,1.915361285E-1,8.925583839E0,9.078812599E0
4.617984375E0,-3.064578176E-1,9.959878922E0,1.183693314E1
4.622990625E0,-8.427590132E-1,1.137724686E1,1.566765594E1
4.627995313E0,-3.830722719E-2,1.290953541E1,1.946007156E1
4.633003125E0,2.375048161E0,1.394383049E1,2.336740875E1
4.638006250E0,5.592854977E0,1.467166805E1,2.719813156E1
4.643012500E0,9.308655739E0,1.513135433E1,3.014778709E1
4.647985938E0,1.344583702E1,1.536119843E1,3.137361908E1
4.652992188E0,1.716163826E1,1.505473995E1,3.110546875E1
4.657996875E0,2.003467941E1,1.440351772E1,2.857719231E1
4.663003125E0,2.156696892E1,1.409705925E1,2.447831726E1
4.668009375E0,2.175850487E1,1.417367363E1,1.980483627E1
4.672982813E0,2.087743950E1,1.444182491E1,1.520796967E1
4.677989063E0,1.953668594E1,1.436521053E1,1.183693314E1
4.682993750E0,1.773624611E1,1.394383049E1,9.768342972E0
4.688000000E0,1.566765594E1,1.333091545E1,9.308655739E0
4.693006250E0,1.336922264E1,1.260307789E1,9.883264542E0
4.698010938E0,1.130063248E1,1.179862595E1,1.110909557E1
4.702985938E0,9.270348549E0,1.103248119E1,1.225831223E1
4.707990625E0,7.086836815E0,1.041956615E1,1.287122822E1
4.712995313E0,5.094861031E0,9.844957352E0,1.256477070E1
4.718001563E0,3.179499865E0,9.232041359E0,1.145386124E1
4.723007813E0,1.532289028E0,8.695740700E0,9.768342972E0
4.727981250E0,0.000000000E0,7.967903137E0,7.546523571E0
4.732987500E0,0.000000000E0,7.967903137E0,5.094861031E0
4.737992188E0,-1.379060149E0,7.201758862E0,5.477933407E0
4.742998438E0,-2.298433542E0,6.090848923E0,3.754108191E0
4.748004688E0,-2.987963676E0,5.018246651E0,2.604891539E0
4.753010938E0,-3.294421434E0,3.983951569E0,1.800439715E0
4.757982813E0,-3.294421434E0,2.949656487E0,1.225831270E0
4.762990625E0,-2.758120298E0,1.991975784E0,1.034295082E0
4.767993750E0,-1.647210717E0,1.225831270E0,8.810662031E-1
4.773001563E0,-2.298433632E-1,4.979939461E-1,7.278373241E-1
4.778006250E0,1.340752959E0,-1.915361285E-1,7.661445141E-1
4.783010938E0,3.102885485E0,-7.278373241E-1,8.044517636E-1
4.787985938E0,5.056553841E0,-9.576807022E-1,8.044517636E-1
4.792990625E0,6.358999729E0,-9.576807022E-1,7.278373241E-1
4.797996875E0,6.703764915E0,-5.746083856E-1,2.298433632E-1
4.803001563E0,6.473921299E0,-2.298433632E-1,-4.213795066E-1
4.808007813E0,5.746084213E0,-3.830722719E-2,-1.340752959E0
4.812982813E0,4.826710701E0,1.149216816E-1,-2.068590164E0
4.817987500E0,3.792415380E0,3.447650373E-1,-2.643198729E0
4.822993750E0,2.528276920E0,6.512228847E-1,-2.873042107E0
4.827998438E0,1.455674648E0,9.576807022E-1,-2.604891539E0
4.833004688E0,4.979939461E-1,1.072602391E0,-2.221819162E0
4.838009375E0,-3.447650373E-1,1.302445769E0,-1.877054095E0
4.842984375E0,-1.340752959E0,1.532289028E0,-1.608903527E0
4.847989063E0,-2.298433542E0,1.685518026E0,-1.340752959E0
4.852995313E0,-2.949656487E0,1.608903527E0,-1.340752959E0
4.858001563E0,-3.485957623E0,1.800439715E0,-1.225831270E0
4.863006250E0,-3.945644379E0,1.877054095E0,-1.110909581E0
4.868012500E0,-4.520252705E0,2.183511972E0,-8.810662031E-1
4.872987500E0,-5.248090267E0,2.643198729E0,-5.746083856E-1
4.877992188E0,-5.822698593E0,3.026270866E0,-3.830722570E-1
4.882996875E0,-6.397306919E0,3.447650433E0,-3.830722570E-1
4.888003125E0,-6.550535679E0,3.983951569E0,-3.830722570E-1
4.893009375E0,-6.550535679E0,4.481945515E0,-4.213795066E-1
4.897982813E0,-6.244078159E0,4.903325081E0,-4.213795066E-1
4.902987500E0,-5.784391403E0,5.324704647E0,-1.915361285E-1
4.907993750E0,-5.286397457E0,5.592854977E0,1.915361285E-1
4.913000000E0,-4.903325081E0,5.822698593E0,9.193734527E-1
4.918004688E0,-4.520252705E0,5.975927353E0,1.915361404E0
4.923010938E0,-4.328716755E0,6.397306919E0,3.026270866E0
4.927985938E0,-4.137180328E0,6.588842869E0,4.098873138E0
4.932990625E0,-4.443638325E0,6.933608055E0,5.133168221E0
4.937995313E0,-4.865017891E0,7.316680431E0,5.861005783E0
4.943001563E0,-5.477933407E0,7.661445618E0,6.320692539E0
4.948007813E0,-5.975927353E0,7.852981567E0,6.588842869E0
4.952981250E0,-6.358999729E0,7.891288757E0,7.048529625E0
4.957987500E0,-6.550535679E0,8.044517517E0,8.006210327E0
4.962992188E0,-6.627150536E0,8.121131897E0,9.346963882E0
4.967998438E0,-6.435614109E0,8.044517517E0,1.122401714E1
4.973003125E0,-5.975927353E0,8.044517517E0,1.313937855E1
4.978009375E0,-5.669469833E0,8.197746277E0,1.532289124E1
4.982982813E0,-5.363011837E0,8.580819130E0,1.750640297E1
4.987989063E0,-5.324704647E0,9.232041359E0,1.911530685E1
4.992995313E0,-5.899312973E0,9.959878922E0,1.965160751E1
4.998000000E0,-6.971915245E0,1.099417400E1,1.995806503E1
5.003006250E0,-8.542511940E0,1.187524033E1,2.026452255E1
5.008010938E0,-1.068771648E1,1.279461384E1,2.103066826E1
5.012984375E0,-1.329260826E1,1.348414421E1,2.225649834E1
5.017990625E0,-1.601242065E1,1.413536644E1,2.363555908E1
5.022995313E0,-1.788947487E1,1.451843929E1,2.505292702E1
5.028003125E0,-1.873223495E1,1.428859615E1,2.608722115E1
5.033009375E0,-1.788947487E1,1.367568016E1,2.658521652E1
5.037981250E0,-1.520796967E1,1.267969227E1,2.627875710E1
5.042987500E0,-1.126232433E1,1.153047562E1,2.486139107E1
5.047993750E0,-6.473921299E0,1.049618053E1,2.248634148E1
5.052998438E0,-1.608903527E0,9.653421402E0,1.972822189E1
5.058003125E0,2.681505919E0,8.772355080E0,1.647210693E1
5.063009375E0,5.707777023E0,8.121131897E0,1.306276417E1
5.067982813E0,7.125144482E0,7.469909191E0,9.500192642E0
5.072989063E0,6.933608055E0,6.780379295E0,6.512228489E0
5.077995313E0,5.937620163E0,6.090848923E0,4.290409565E0
5.083001563E0,4.328716755E0,5.209783077E0,3.332728863E0
5.088006250E0,2.260126352E0,4.252102375E0,3.447650433E0
5.093010938E0,7.661445439E-2,3.294421434E0,4.558559895E0
5.097985938E0,-1.723825216E0,2.451662540E0,6.320692539E0
5.102992188E0,-3.026270866E0,1.455674648E0,8.312667847E0
5.107996875E0,-3.409343243E0,8.427590132E-1,1.034295177E1
5.113003125E0,-3.409343243E0,8.427590132E-1,1.034295177E1
5.118007813E0,-2.566584110E0,7.661445439E-2,1.218169785E1
5.122982813E0,-9.576807022E-1,-6.129156351E-1,1.363737297E1
5.127987500E0,1.264138460E0,-1.149216771E0,1.486320400E1
5.132993750E0,3.639186621E0,-1.608903527E0,1.559104156E1
5.137998438E0,6.244078159E0,-2.183511972E0,1.562934875E1
5.143004688E0,8.772355080E0,-2.719813108E0,1.536119843E1
5.148010938E0,1.084094524E1,-3.256114244E0,1.482489681E1
5.152984375E0,1.260307789E1,-3.600879431E0,1.398213768E1
5.157990625E0,1.382890892E1,-3.945644379E0,1.256477070E1
5.162995313E0,1.478658962E1,-4.252102375E0,1.091755962E1
5.168001563E0,1.551442719E1,-4.711789131E0,9.078812599E0
5.173006250E0,1.585919189E1,-5.171475887E0,7.393294811E0
5.178012500E0,1.566765594E1,-5.516240597E0,6.090848923E0
5.182985938E0,1.539950562E1,-5.746084213E0,4.979939461E0
5.187990625E0,1.486320400E1,-5.899312973E0,4.060565948E0
5.192996875E0,1.432690334E1,-6.090848923E0,3.600879431E0
5.198003125E0,1.386721611E1,-6.205770969E0,3.217807055E0
5.203009375E0,1.340752983E1,-6.129156113E0,2.758120298E0
5.207982813E0,1.325430107E1,-6.052541733E0,2.260126352E0
5.212987500E0,1.287122822E1,-5.975927353E0,1.647210717E0
5.217993750E0,1.264138508E1,-5.592854977E0,1.110909581E0
5.223000000E0,1.252646351E1,-5.248090267E0,6.129156351E-1
5.228004688E0,1.267969227E1,-4.865017891E0,1.915361285E-1
5.233010938E0,1.306276417E1,-4.635174274E0,-4.979939461E-1
5.237984375E0,1.329260826E1,-4.635174274E0,-1.187524080E0
5.242990625E0,1.310107136E1,-4.558559895E0,-1.570596337E0
5.247995313E0,1.302445698E1,-4.596867085E0,-1.264138460E0
5.253001563E0,1.348414421E1,-4.941632271E0,-6.129156351E-1
5.258007813E0,1.409705925E1,-4.865017891E0,5.363011956E-1
5.262981250E0,1.256477070E1,-4.213795185E0,3.447650433E0
5.267987500E0,1.256477070E1,-4.213795185E0,3.447650433E0
5.272993750E0,1.034295177E1,-3.792415380E0,4.903325081E0
5.277998438E0,8.044517517E0,-3.485957623E0,6.282385349E0
5.283006250E0,5.592854977E0,-2.566584110E0,7.852981567E0
5.288009375E0,3.524264812E0,-1.379060149E0,9.193734169E0
5.292982813E0,1.800439715E0,7.661445439E-2,1.030464458E1
5.297989063E0,6.512228847E-1,1.417367458E0,1.095586681E1
5.302993750E0,3.830722719E-2,2.796427488E0,1.176031876E1
5.308000000E0,-3.064578176E-1,4.481945515E0,1.298614979E1
5.313006250E0,-6.129156351E-1,5.975927353E0,1.493981838E1
5.318010938E0,-6.895300746E-1,7.125144482E0,1.708502388E1
5.322985938E0,-5.363011956E-1,7.776367188E0,1.923022842E1
5.327990625E0,3.830722719E-2,8.197746277E0,2.129881859E1
5.332996875E0,9.193734527E-1,8.619126320E0,2.348233032E1
5.338001563E0,1.953668594E0,8.887276649E0,2.581907082E1
5.343009375E0,2.949656487E0,9.232041359E0,2.838565445E1
5.347982813E0,3.639186621E0,9.576807022E0,3.095223999E1
5.352987500E0,4.367023945E0,9.615114212E0,3.325067139E1
5.357993750E0,5.248090267E0,9.346963882E0,3.505111313E1
5.362998438E0,5.975927353E0,9.117119789E0,3.631525040E1
5.368004688E0,6.090848923E0,9.117119789E0,3.677493668E1
5.373009375E0,5.516240597E0,9.078812599E0,3.581725693E1
5.377984375E0,4.558559895E0,8.963891029E0,3.328897858E1
5.382989063E0,3.294421434E0,8.734047890E0,2.995625114E1
5.387995313E0,1.685518026E0,8.848969460E0,2.643198586E1
5.393000000E0,-2.298433632E-1,9.078812599E0,2.302264404E1
5.398006250E0,-2.260126352E0,9.385271072E0,2.003467941E1
5.403012500E0,-4.290409565E0,9.461885452E0,1.704671669E1
5.407985938E0,-5.937620163E0,9.461885452E0,1.425028896E1
5.412992188E0,-6.895300865E0,9.193734169E0,1.176031876E1
5.417996875E0,-7.086836815E0,8.963891029E0,9.193734169E0
5.423003125E0,-6.627150536E0,8.772355080E0,6.780379295E0
5.428007813E0,-5.286397457E0,8.734047890E0,4.673481941E0
5.432982813E0,-3.677493811E0,8.887276649E0,2.643198729E0
5.437987500E0,-2.221819162E0,8.963891029E0,7.278373241E-1
5.442992188E0,-1.034295082E0,8.925583839E0,-1.225831270E0
5.447998438E0,-2.681505978E-1,8.734047890E0,-3.064578056E0
5.453004688E0,4.596867263E-1,8.427590370E0,-4.673481941E0
5.458010938E0,9.193734527E-1,7.891288757E0,-5.669469833E0
5.462984375E0,1.187524080E0,7.240066051E0,-5.822698593E0
5.467990625E0,1.225831270E0,6.473921299E0,-5.401319027E0
5.472996875E0,1.149216771E0,5.822698593E0,-4.443638325E0
5.478001563E0,5.363011956E-1,5.171475887E0,-3.026270866E0
5.483006250E0,8.044517636E-1,5.171475887E0,-3.026270866E0
5.488012500E0,4.213795066E-1,4.481945515E0,-1.187524080E0
5.492985938E0,1.532289088E-1,3.754108191E0,-2.681505978E-1
5.497992188E0,-2.298433632E-1,3.141192675E0,-7.661445439E-2
5.502996875E0,-4.979939461E-1,2.604891539E0,1.149216816E-1
5.508003125E0,-6.129156351E-1,2.183511972E0,1.532289088E-1
5.513009375E0,-7.661445141E-1,1.953668594E0,-7.661445439E-2
5.517982813E0,-8.810662031E-1,1.953668594E0,-3.830722570E-1
5.522989063E0,-9.576807022E-1,1.915361404E0,-8.044517636E-1
5.527993750E0,-1.187524080E0,1.915361404E0,-1.225831270E0
5.533000000E0,-1.608903527E0,2.030282974E0,-1.685518026E0
5.538006250E0,-2.183511972E0,2.145204782E0,-2.298433542E0
5.543010938E0,-2.719813108E0,2.336740971E0,-2.796427488E0
5.547984375E0,-3.294421434E0,2.375048161E0,-3.102885485E0
5.552990625E0,-3.945644379E0,2.451662540E0,-3.256114244E0
5.557995313E0,-4.711789131E0,2.489969730E0,-3.217807055E0
5.563001563E0,-5.286397457E0,2.451662540E0,-2.949656487E0
5.568007813E0,-5.822698593E0,2.451662540E0,-2.758120298E0
5.572981250E0,-6.512228489E0,2.183511972E0,-2.489969730E0
5.577985938E0,-6.933608055E0,1.953668594E0,-2.336740971E0
5.582992188E0,-7.125144482E0,2.030282974E0,-1.762132406E0
5.587998438E0,-7.086836815E0,2.106897593E0,-1.264138460E0
5.593004688E0,-6.627150536E0,2.221819162E0,-8.810662031E-1
5.598009375E0,-5.861005783E0,2.298433542E0,-3.830722570E-1
5.602984375E0,-5.056553841E0,2.489969730E0,3.830722719E-2
5.607989063E0,-4.635174274E0,2.911349297E0,2.681505978E-1
5.612995313E0,-4.137180328E0,3.064578056E0,3.064578176E-1
5.618000000E0,-3.447650433E0,2.987963676E0,3.064578176E-1
5.623006250E0,-3.294421434E0,2.911349297E0,1.915361285E-1
5.628010938E0,-3.485957623E0,2.987963676E0,3.447650373E-1
5.632985938E0,-3.830722809E0,3.102885485E0,8.810662031E-1
5.637990625E0,-4.175487995E0,3.179499865E0,1.762132406E0
5.642995313E0,-4.520252705E0,3.294421434E0,2.719813108E0
5.648003125E0,-4.788403511E0,3.409343243E0,3.562572241E0
5.653007813E0,-4.903325081E0,3.562572241E0,4.367023945E0
5.657982813E0,-5.094861031E0,3.754108191E0,5.477933407E0
5.662987500E0,-5.477933407E0,4.252102375E0,6.742072105E0
5.667992188E0,-5.899312973E0,4.903325081E0,8.082824707E0
5.672998438E0,-6.473921299E0,5.516240597E0,9.385271072E0
5.678004688E0,-6.895300865E0,6.129156113E0,1.087925243E1
5.683009375E0,-7.354987621E0,6.512228489E0,1.241154194E1
5.687984375E0,-7.776367188E0,7.010222435E0,1.402044487E1
5.692989063E0,-8.389283180E0,7.354987621E0,1.582088470E1
5.697995313E0,-9.078812599E0,7.929595947E0,1.727655983E1
5.703000000E0,-1.015141487E1,8.274360657E0,1.861731148E1
5.708006250E0,-1.122401714E1,8.734047890E0,2.011129379E1
5.713012500E0,-1.233492756E1,9.308655739E0,2.141374016E1
5.717985938E0,-1.352245140E1,9.730035782E0,2.237141991E1
5.722992188E0,-1.425028896E1,1.030464458E1,2.279280090E1
5.727996875E0,-1.463336086E1,1.091755962E1,2.271618652E1
5.733003125E0,-1.463336086E1,1.153047562E1,2.221819115E1
5.738007813E0,-1.417367363E1,1.202846909E1,2.122220421E1
5.742982813E0,-1.329260826E1,1.244984913E1,1.995806503E1
5.747987500E0,-1.210508347E1,1.279461384E1,1.808101082E1
5.752993750E0,-1.076433086E1,1.287122822E1,1.597411346E1
5.758000000E0,-9.117119789E0,1.267969227E1,1.344583702E1
5.763004688E0,-7.201758862E0,1.229662037E1,1.099417400E1
5.768010938E0,-4.941632271E0,1.160709000E1,8.580819130E0
5.772984375E0,-2.604891539E0,1.091755962E1,6.397306919E0
5.777989063E0,-4.596867263E-1,1.022802925E1,4.750096321E0
5.782995313E0,1.455674648E0,9.270348549E0,3.524264812E0
5.788001563E0,3.026270866E0,8.274360657E0,2.796427488E0
5.793007813E0,4.175487995E0,7.125144482E0,2.413355350E0
5.798012500E0,4.903325081E0,5.784391403E0,2.489969730E0
5.802985938E0,5.363011837E0,4.328716755E0,3.102885485E0
5.807992188E0,5.631162167E0,3.064578056E0,3.792415380E0
5.812996875E0,5.937620163E0,1.762132406E0,4.711789131E0
5.818003125E0,6.167463779E0,4.979939461E-1,5.631162167E0
5.823009375E0,6.205770969E0,-6.129156351E-1,6.550535679E0
5.827982813E0,6.397306919E0,-1.455674648E0,7.508216381E0
5.832989063E0,6.550535679E0,-2.221819162E0,8.389283180E0
5.837993750E0,6.895300865E0,-3.102885485E0,9.308655739E0
5.843000000E0,7.354987621E0,-3.792415380E0,1.003649330E1
5.848006250E0,8.044517517E0,-4.213795185E0,1.084094524E1
5.853010938E0,8.925583839E0,-4.520252705E0,1.153047562E1
5.857985938E0,8.925583839E0,-4.520252705E0,1.214339066E1
5.862990625E0,9.883264542E0,-4.443638325E0,1.225831223E1
5.867995313E0,1.107078838E1,-4.213795185E0,1.260307789E1
5.873001563E0,1.195185471E1,-3.830722809E0,1.271799946E1
5.878007813E0,1.275630665E1,-3.447650433E0,1.237323475E1
5.882981250E0,1.333091545E1,-3.141192675E0,1.199016190E1
5.887987500E0,1.340752983E1,-3.026270866E0,1.176031876E1
5.892992188E0,1.306276417E1,-2.873042107E0,1.172201157E1
5.897998438E0,1.252646351E1,-2.528276920E0,1.222000504E1
5.903003125E0,1.176031876E1,-2.106897593E0,1.313937855E1
5.908009375E0,1.084094524E1,-1.570596337E0,1.459505367E1
5.912984375E0,9.998186111E0,-1.110909581E0,1.643379974E1
5.917989063E0,9.423578262E0,-5.363011956E-1,1.834916115E1
5.922993750E0,9.117119789E0,-1.149216816E-1,2.022621536E1
5.928000000E0,8.772355080E0,1.149216816E-1,2.195004082E1
5.933006250E0,8.580819130E0,3.447650373E-1,2.329079437E1
5.938010938E0,8.350975990E0,4.213795066E-1,2.409524536E1
5.942985938E0,8.082824707E0,6.895300746E-1,2.409524536E1
5.947990625E0,7.738059998E0,1.072602391E0,2.363555908E1
5.952996875E0,7.201758862E0,1.570596337E0,2.267787933E1
5.958003125E0,6.588842869E0,2.566584110E0,2.141374016E1
5.963007813E0,5.822698593E0,3.600879431E0,1.957499313E1
5.967982813E0,4.711789131E0,4.635174274E0,1.689348793E1
5.972987500E0,3.026270866E0,5.822698593E0,1.352245140E1
5.977993750E0,9.193734527E-1,7.431602001E0,1.007480049E1
5.982998438E0,-1.647210717E0,9.078812599E0,7.010222435E0
5.988004688E0,-4.252102375E0,1.080263805E1,4.405331135E0
5.993009375E0,-6.703764915E0,1.241154194E1,2.604891539E0
5.997984375E0,-8.657433510E0,1.363737297E1,1.877054095E0
6.002989063E0,-1.022802925E1,1.474828243E1,2.145204782E0
6.007995313E0,-1.122401714E1,1.493981838E1,3.026270866E0
6.013001563E0,-1.137724686E1,1.421198082E1,4.290409565E0
6.018006250E0,-1.103248119E1,1.294784260E1,5.592854977E0
6.023012500E0,-1.038125896E1,1.149216843E1,6.818686485E0
6.027985938E0,-9.500192642E0,1.022802925E1,7.852981567E0
6.032992188E0,-8.580819130E0,9.270348549E0,8.197746277E0
6.037996875E0,-7.738059998E0,8.427590370E0,8.236053467E0
6.043003125E0,-6.512228489E0,7.508216381E0,8.121131897E0
6.048007813E0,-5.018246651E0,6.742072105E0,7.699752808E0
6.052982813E0,-3.371036053E0,6.129156113E0,7.048529625E0
6.057987500E0,-1.838746905E0,5.784391403E0,6.282385349E0
6.062993750E0,-5.746083856E-1,5.746084213E0,4.903325081E0
6.068000000E0,2.298433632E-1,5.669469833E0,3.485957623E0
6.073006250E0,6.512228847E-1,5.861005783E0,2.221819162E0
6.078010938E0,8.044517636E-1,6.052541733E0,1.110909581E0
6.082984375E0,6.129156351E-1,6.282385349E0,3.830722570E-1
6.087989063E0,1.532289088E-1,6.473921299E0,-1.149216816E-1
6.092995313E0,-3.064578176E-1,6.473921299E0,-4.213795066E-1
6.098001563E0,-8.044517636E-1,6.397306919E0,-3.830722570E-1
6.103006250E0,-1.264138460E0,6.397306919E0,-1.915361285E-1
6.108012500E0,-1.723825216E0,6.167463779E0,3.830722719E-2
6.112985938E0,-2.106897593E0,5.899312973E0,2.298433632E-1
6.117992188E0,-2.336740971E0,5.516240597E0,3.447650373E-1
6.122998438E0,-2.643198729E0,5.018246651E0,3.830722570E-1
6.128003125E0,-2.796427488E0,4.673481941E0,6.895300746E-1
6.133009375E0,-2.758120298E0,4.405331135E0,1.072602391E0
6.137982813E0,-2.719813108E0,4.137180328E0,1.532289028E0
6.142989063E0,-2.719813108E0,4.060565948E0,1.762132406E0
6.147993750E0,-2.604891539E0,3.869029999E0,2.068590164E0
6.153000000E0,-2.604891539E0,3.792415380E0,2.336740971E0
6.158004688E0,-2.528276920E0,3.830722809E0,2.375048161E0
6.163010938E0,-2.221819162E0,3.830722809E0,2.413355350E0
6.167985938E0,-1.877054095E0,3.715801001E0,2.489969730E0
6.172990625E0,-1.417367458E0,3.792415380E0,2.604891539E0
6.177996875E0,-9.959878922E-1,3.830722809E0,2.758120298E0
6.183001563E0,-6.895300746E-1,3.715801001E0,2.834734917E0
6.188007813E0,-3.064578176E-1,3.677493811E0,2.834734917E0
6.192982813E0,-1.915361285E-1,3.639186621E0,2.949656487E0
6.197987500E0,-3.064578176E-1,3.639186621E0,2.987963676E0
6.202992188E0,-6.129156351E-1,3.677493811E0,3.141192675E0
6.207998438E0,-9.959878922E-1,3.600879431E0,3.524264812E0
6.213004688E0,-1.417367458E0,3.600879431E0,4.022258759E0
6.218009375E0,-1.991975784E0,3.524264812E0,4.673481941E0
6.222984375E0,-2.681505919E0,3.332728863E0,5.516240597E0
6.227989063E0,-3.409343243E0,3.179499865E0,6.473921299E0
6.232993750E0,-3.409343243E0,3.792415380E0,7.354987621E0
6.238001563E0,-4.290409565E0,3.409343243E0,7.354987621E0
6.243006250E0,-5.171475887E0,3.677493811E0,8.044517517E0
6.248012500E0,-5.899312973E0,4.022258759E0,8.542511940E0
6.252985938E0,-6.473921299E0,4.443638325E0,8.580819130E0
6.257990625E0,-6.818686485E0,4.979939461E0,8.465897560E0
6.262996875E0,-7.316680431E0,5.631162167E0,8.657433510E0
6.268003125E0,-7.316680431E0,5.631162167E0,8.657433510E0
6.273009375E0,-7.738059998E0,5.707777023E0,9.844957352E0
6.277982813E0,-8.465897560E0,5.861005783E0,1.195185471E1
6.282987500E0,-9.423578262E0,6.129156113E0,1.463336086E1
6.287993750E0,-1.034295177E1,6.244078159E0,1.716163826E1
6.293000000E0,-1.122401714E1,6.167463779E0,1.938345718E1
6.298004688E0,-1.195185471E1,6.014234543E0,2.106897545E1
6.303010938E0,-1.260307789E1,6.167463779E0,2.195004082E1
6.307984375E0,-1.264138508E1,6.473921299E0,2.137543297E1
6.312990625E0,-1.183693314E1,6.780379295E0,1.961330032E1
6.317993750E0,-1.034295177E1,7.278373241E0,1.693179512E1
6.323001563E0,-8.350975990E0,7.814674377E0,1.413536644E1
6.328006250E0,-6.129156113E0,8.580819130E0,1.183693314E1
6.333012500E0,-4.098873138E0,9.346963882E0,1.064940929E1
6.337985938E0,-2.375048161E0,9.998186111E0,1.061110210E1
6.342992188E0,-1.072602391E0,1.053448772E1,1.137724686E1
6.347996875E0,-3.447650373E-1,1.084094524E1,1.256477070E1
6.353003125E0,3.830722719E-2,1.099417400E1,1.340752983E1
6.358009375E0,3.830722570E-1,1.122401714E1,1.363737297E1
6.362982813E0,4.213795066E-1,1.126232433E1,1.310107136E1
6.367989063E0,5.746083856E-1,1.118570995E1,1.183693314E1
6.372993750E0,9.576807022E-1,1.091755962E1,1.007480049E1
6.378000000E0,1.532289028E0,1.057279491E1,8.274360657E0
6.383004688E0,2.106897593E0,1.022802925E1,6.473921299E0
6.388010938E0,2.604891539E0,9.883264542E0,5.094861031E0
6.392984375E0,2.987963676E0,9.385271072E0,3.869029999E0
6.397990625E0,3.332728863E0,8.657433510E0,3.179499865E0
6.402995313E0,3.600879431E0,7.776367188E0,2.643198729E0
6.408003125E0,4.022258759E0,6.856993675E0,1.953668594E0
6.413007813E0,4.367023945E0,5.784391403E0,1.264138460E0
6.417981250E0,4.405331135E0,4.903325081E0,7.278373241E-1
6.422987500E0,4.328716755E0,4.060565948E0,4.596867263E-1
6.427992188E0,3.945644379E0,3.447650433E0,4.979939461E-1
6.432998438E0,3.485957623E0,3.026270866E0,4.979939461E-1
6.438003125E0,2.796427488E0,2.604891539E0,4.596867263E-1
6.443009375E0,2.260126352E0,2.221819162E0,4.213795066E-1
6.447982813E0,1.723825216E0,1.723825216E0,7.661445439E-2
6.452989063E0,1.072602391E0,1.264138460E0,-3.447650373E-1
6.457993750E0,6.512228847E-1,9.193734527E-1,-5.746083856E-1
6.463000000E0,3.830722570E-1,6.129156351E-1,-1.915361285E-1
6.468006250E0,3.064578176E-1,3.064578176E-1,6.512228847E-1
6.473010938E0,6.129156351E-1,7.661445439E-2,2.106897593E0
6.477984375E0,1.264138460E0,-3.064578176E-1,3.754108191E0
6.482990625E0,2.413355350E0,-8.427590132E-1,5.324704647E0
6.487996875E0,3.754108191E0,-1.570596337E0,7.086836815E0
6.493001563E0,5.018246651E0,-2.489969730E0,8.350975990E0
6.498007813E0,6.473921299E0,-3.294421434E0,9.423578262E0
6.502981250E0,8.044517517E0,-3.945644379E0,9.883264542E0
6.507987500E0,9.385271072E0,-4.481945515E0,9.921571732E0
6.512992188E0,1.080263805E1,-5.018246651E0,9.500192642E0
6.517998438E0,1.222000504E1,-5.286397457E0,8.887276649E0
6.523004688E0,1.340752983E1,-5.439626217E0,8.159439087E0
6.528009375E0,1.402044487E1,-5.439626217E0,7.354987621E0
6.532984375E0,1.425028896E1,-5.363011837E0,6.895300865E0
6.537989063E0,1.413536644E1,-5.248090267E0,6.780379295E0
6.542995313E0,1.367568016E1,-5.133168221E0,7.048529625E0
6.548000000E0,1.283292103E1,-5.056553841E0,7.738059998E0
6.553007813E0,1.179862595E1,-4.788403511E0,8.810662270E0
6.558012500E0,1.068771648E1,-4.405331135E0,1.015141487E1
6.562985938E0,9.730035782E0,-3.869029999E0,1.176031876E1
6.567992188E0,8.734047890E0,-3.409343243E0,1.359906578E1
6.572996875E0,7.929595947E0,-2.681505919E0,1.547612000E1
6.578003125E0,7.469909191E0,-1.877054095E0,1.739148140E1
6.583007813E0,7.431602001E0,-9.576807022E-1,1.892377090E1
6.587982813E0,7.929595947E0,1.915361285E-1,2.034113693E1
6.592987500E0,8.963891029E0,1.493981838E0,2.156696892E1
6.597993750E0,1.034295177E1,2.758120298E0,2.317587280E1
6.603000000E0,1.187524033E1,4.098873138E0,2.547430611E1
6.608004688E0,1.302445698E1,5.133168221E0,2.896026421E1
6.613009375E0,1.363737297E1,6.244078159E0,3.355713272E1
6.617984375E0,1.363737297E1,6.244078159E0,3.355713272E1
6.622990625E0,1.363737297E1,7.623138428E0,3.815399933E1
6.627995313E0,1.336922264E1,9.193734169E0,4.156334305E1
6.633001563E0,1.310107136E1,1.080263805E1,4.324885941E1
6.638006250E0,1.279461384E1,1.229662037E1,4.278917313E1
6.643012500E0,1.290953541E1,1.386721611E1,4.010766602E1
6.647985938E0,1.359906578E1,1.516966152E1,3.474465561E1
6.652992188E0,1.470997524E1,1.643379974E1,2.735136032E1
6.657996875E0,1.582088470E1,1.754471016E1,1.968991470E1
6.663003125E0,1.654872131E1,1.861731148E1,1.306276417E1
6.668009375E0,1.628057098E1,1.923022842E1,8.657433510E0
6.672984375E0,1.459505367E1,1.938345718E1,7.393294811E0
6.677989063E0,1.168370438E1,1.903869247E1,8.274360657E0
6.682993750E0,7.469909191E0,1.831085396E1,9.844957352E0
6.688000000E0,2.643198729E0,1.731486702E1,1.153047562E1
6.693004688E0,-2.145204782E0,1.631887817E1,1.287122822E1
6.698010938E0,-6.205770969E0,1.539950562E1,1.405875206E1
6.702984375E0,-9.385271072E0,1.448013210E1,1.532289124E1
6.707990625E0,-1.168370438E1,1.340752983E1,1.616564941E1
6.712995313E0,-1.302445698E1,1.183693314E1,1.628057098E1
6.718001563E0,-1.363737297E1,1.018972206E1,1.547612000E1
6.723007813E0,-1.359906578E1,8.159439087E0,1.409705925E1
6.727981250E0,-1.294784260E1,6.435614109E0,1.214339066E1
6.732985938E0,-1.206677628E1,5.171475887E0,9.959878922E0
6.737992188E0,-1.103248119E1,4.443638325E0,7.278373241E0
6.742998438E0,-9.998186111E0,4.060565948E0,4.213795185E0
6.748004688E0,-8.695740700E0,3.792415380E0,1.647210717E0
6.753009375E0,-7.431602001E0,3.332728863E0,-4.979939461E-1
6.757982813E0,-6.205770969E0,2.873042107E0,-1.570596337E0
6.762989063E0,-5.363011837E0,2.489969730E0,-1.379060149E0
6.767993750E0,-4.941632271E0,2.068590164E0,-3.447650373E-1
6.773000000E0,-4.865017891E0,1.532289028E0,1.149216771E0
6.778006250E0,-5.171475887E0,1.225831270E0,2.796427488E0
6.783010938E0,-5.439626217E0,8.810662031E-1,4.596867085E0
6.787985938E0,-5.554547787E0,6.129156351E-1,5.746084213E0
6.792992188E0,-5.669469833E0,5.363011956E-1,6.818686485E0
6.797995313E0,-5.899312973E0,6.129156351E-1,7.316680431E0
6.803003125E0,-5.937620163E0,7.661445141E-1,7.508216381E0
6.808007813E0,-5.937620163E0,1.034295082E0,7.431602001E0
6.812982813E0,-5.669469833E0,1.379060149E0,6.780379295E0
6.817987500E0,-5.439626217E0,1.877054095E0,5.707777023E0
6.822993750E0,-5.018246651E0,2.375048161E0,4.137180328E0
6.827998438E0,-4.252102375E0,2.949656487E0,2.375048161E0
6.833004688E0,-3.409343243E0,3.600879431E0,7.278373241E-1
6.838009375E0,-2.643198729E0,4.290409565E0,-1.034295082E0
6.842984375E0,-2.106897593E0,4.903325081E0,-2.298433542E0
6.847989063E0,-1.493981838E0,5.401319027E0,-3.371036053E0
6.852995313E0,-9.193734527E-1,6.014234543E0,-4.252102375E0
6.858000000E0,-5.363011956E-1,6.550535679E0,-4.903325081E0
6.863006250E0,-1.915361285E-1,6.895300865E0,-5.516240597E0
6.868010938E0,-3.830722719E-2,7.125144482E0,-5.822698593E0
6.872985938E0,1.915361285E-1,7.240066051E0,-6.090848923E0
6.877990625E0,4.213795066E-1,7.240066051E0,-6.129156113E0
6.882996875E0,6.129156351E-1,7.010222435E0,-5.937620163E0
6.888003125E0,9.576807022E-1,6.665457726E0,-5.248090267E0
6.893007813E0,1.532289028E0,6.205770969E0,-4.098873138E0
6.897982813E0,1.953668594E0,5.822698593E0,-2.336740971E0
6.902987500E0,2.145204782E0,5.707777023E0,-4.213795066E-1
6.907993750E0,2.030282974E0,5.631162167E0,1.187524080E0
6.913000000E0,1.685518026E0,5.477933407E0,2.298433542E0
6.918004688E0,1.264138460E0,5.248090267E0,2.949656487E0
6.923009375E0,1.149216771E0,5.018246651E0,3.141192675E0
6.927984375E0,1.034295082E0,4.979939461E0,3.294421434E0
6.932990625E0,7.278373241E-1,4.750096321E0,3.562572241E0
6.937995313E0,3.830722570E-1,4.750096321E0,3.869029999E0
6.943001563E0,1.149216816E-1,4.750096321E0,4.328716755E0
6.948007813E0,3.830722719E-2,4.788403511E0,4.596867085E0
6.953012500E0,-3.830722719E-2,4.788403511E0,5.018246651E0
6.957985938E0,0.000000000E0,4.788403511E0,5.248090267E0
6.962992188E0,1.532289088E-1,4.979939461E0,5.592854977E0
6.967996875E0,1.915361285E-1,5.401319027E0,5.937620163E0
6.973003125E0,4.213795066E-1,6.205770969E0,6.167463779E0
6.978009375E0,6.895300746E-1,7.316680431E0,6.397306919E0
6.982982813E0,1.302445769E0,8.580819130E0,6.588842869E0
6.987989063E0,1.149216771E0,1.041956615E1,7.201758862E0
6.992993750E0,1.608903527E0,1.011310768E1,6.933608055E0
6.998000000E0,2.106897593E0,1.172201157E1,7.469909191E0
7.003006250E0,2.681505919E0,1.306276417E1,8.350975990E0
7.008010938E0,3.256114244E0,1.463336086E1,9.883264542E0
7.012985938E0,3.639186621E0,1.616564941E1,1.248815632E1
7.017990625E0,3.792415380E0,1.742978859E1,1.616564941E1
7.022996875E0,3.179499865E0,1.834916115E1,2.229480553E1
7.028001563E0,1.877054095E0,1.919192123E1,2.995625114E1
7.033007813E0,3.830722570E-1,2.014960098E1,3.861368561E1
7.037981250E0,-3.064578176E-1,2.083913231E1,4.734773254E1
7.042987500E0,3.830722570E-1,2.122220421E1,5.447287750E1
7.047992188E0,2.796427488E0,2.133712578E1,5.937620163E1
7.052998438E0,6.435614109E0,2.106897545E1,6.090849304E1
7.058004688E0,1.130063248E1,2.072421074E1,5.903143692E1
7.063009375E0,1.689348793E1,2.034113693E1,5.424303436E1
7.067984375E0,2.244803429E1,1.988145065E1,4.757757568E1
7.072989063E0,2.689167404E1,1.930684280E1,4.060565948E1
7.077995313E0,2.957317924E1,1.873223495E1,3.413174057E1
7.083000000E0,3.018609428E1,1.796608925E1,2.846227074E1
7.088006250E0,2.903687859E1,1.697010231E1,2.424847412E1
7.093010938E0,2.635537148E1,1.559104156E1,2.137543297E1
7.097985938E0,2.263957214E1,1.379060173E1,1.953668594E1
7.102990625E0,1.854069710E1,1.179862595E1,1.846408272E1
7.107996875E0,1.413536644E1,9.806650162E0,1.762132454E1
7.113001563E0,9.691728592E0,7.738059998E0,1.674025917E1
7.118007813E0,5.516240597E0,5.937620163E0,1.536119843E1
7.122982813E0,1.800439715E0,4.405331135E0,1.352245140E1
7.127987500E0,-1.379060149E0,3.371036053E0,1.145386124E1
7.132993750E0,-4.098873138E0,2.643198729E0,8.925583839E0
7.137998438E0,-6.397306919E0,2.106897593E0,6.320692539E0
7.143004688E0,-8.044517517E0,1.838746905E0,3.869029999E0
7.148009375E0,-9.193734169E0,1.417367458E0,1.647210717E0
7.152984375E0,-9.883264542E0,8.810662031E-1,-2.681505978E-1
7.157989063E0,-1.026633644E1,2.298433632E-1,-2.030282974E0
7.162995313E0,-1.041956615E1,-4.596867263E-1,-3.754108191E0
7.168001563E0,-1.038125896E1,-1.034295082E0,-5.516240597E0
7.173006250E0,-1.003649330E1,-1.647210717E0,-7.393294811E0
7.178010938E0,-9.806650162E0,-2.336740971E0,-9.155426979E0
7.182985938E0,-9.653421402E0,-3.217807055E0,-1.049618053E1
7.187992188E0,-9.538499832E0,-4.213795185E0,-1.133893967E1
7.192996875E0,-9.385271072E0,-5.477933407E0,-1.130063248E1
7.198003125E0,-9.155426979E0,-6.742072105E0,-1.057279491E1
7.203007813E0,-8.925583839E0,-8.006210327E0,-9.078812599E0
7.207982813E0,-8.619126320E0,-9.078812599E0,-7.240066051E0
7.212987500E0,-8.427590370E0,-1.011310768E1,-5.477933407E0
7.217993750E0,-7.891288757E0,-1.126232433E1,-3.907337189E0
7.223000000E0,-7.086836815E0,-1.241154194E1,-2.528276920E0
7.228004688E0,-6.244078159E0,-1.340752983E1,-1.379060149E0
7.233010938E0,-5.286397457E0,-1.421198082E1,-6.895300746E-1
7.237984375E0,-4.405331135E0,-1.482489681E1,-2.298433632E-1
7.242990625E0,-3.600879431E0,-1.509304714E1,0.000000000E0
7.247995313E0,-2.911349297E0,-1.493981838E1,-3.830722719E-2
7.253001563E0,-2.183511972E0,-1.451843929E1,-4.213795066E-1
7.258006250E0,-1.685518026E0,-1.375229454E1,-1.187524080E0
7.263012500E0,-1.340752959E0,-1.179862595E1,-3.792415380E0
7.267987500E0,-1.340752959E0,-1.179862595E1,-3.792415380E0
7.272992188E0,-1.264138460E0,-1.068771648E1,-5.363011837E0
7.277996875E0,-9.576807022E-1,-9.691728592E0,-6.933608055E0
7.283003125E0,-8.427590132E-1,-8.734047890E0,-8.465897560E0
7.288009375E0,-6.895300746E-1,-7.891288757E0,-9.691728592E0
7.292982813E0,-4.596867263E-1,-7.240066051E0,-1.080263805E1
7.297989063E0,-2.298433632E-1,-6.665457726E0,-1.137724686E1
7.302993750E0,-1.532289088E-1,-6.129156113E0,-1.164539719E1
7.308000000E0,-1.149216816E-1,-5.669469833E0,-1.160709000E1
7.313006250E0,0.000000000E0,-5.363011837E0,-1.110909557E1
7.318010938E0,1.149216816E-1,-5.209783077E0,-1.018972206E1
7.322984375E0,2.681505978E-1,-5.209783077E0,-9.002198219E0
7.327990625E0,4.596867263E-1,-5.516240597E0,-7.354987621E0
7.332996875E0,6.512228847E-1,-5.822698593E0,-5.477933407E0
7.338001563E0,1.110909581E0,-6.282385349E0,-3.332728863E0
7.343007813E0,1.340752959E0,-6.550535679E0,-9.959878922E-1
7.347982813E0,1.570596337E0,-6.856993675E0,1.034295082E0
7.352987500E0,1.417367458E0,-6.895300865E0,3.026270866E0
7.357992188E0,1.034295082E0,-6.780379295E0,4.635174274E0
7.362998438E0,6.129156351E-1,-6.358999729E0,6.014234543E0
7.368003125E0,6.129156351E-1,-5.746084213E0,6.780379295E0
7.373009375E0,1.915361285E-1,-5.899312973E0,6.780379295E0
7.377982813E0,-1.915361285E-1,-5.286397457E0,6.933608055E0
7.382989063E0,-1.915361285E-1,-4.788403511E0,6.742072105E0
7.387995313E0,-2.298433632E-1,-4.252102375E0,6.550535679E0
7.393001563E0,-1.532289088E-1,-3.677493811E0,6.052541733E0
7.398006250E0,1.915361285E-1,-2.987963676E0,5.822698593E0
7.403010938E0,8.427590132E-1,-2.375048161E0,5.669469833E0
7.407985938E0,1.570596337E0,-1.685518026E0,5.899312973E0
7.412990625E0,2.221819162E0,-1.110909581E0,6.550535679E0
7.417996875E0,2.758120298E0,-5.363011956E-1,7.469909191E0
7.423003125E0,3.179499865E0,3.830722570E-1,8.657433510E0
7.428007813E0,3.294421434E0,1.264138460E0,1.007480049E1
7.432982813E0,3.102885485E0,2.068590164E0,1.141555405E1
7.437987500E0,2.566584110E0,2.873042107E0,1.271799946E1
7.442993750E0,1.723825216E0,3.945644379E0,1.409705925E1
7.447998438E0,6.895300746E-1,5.248090267E0,1.608903503E1
7.453004688E0,-1.149216816E-1,6.780379295E0,1.861731148E1
7.458009375E0,-3.064578176E-1,8.312667847E0,2.164358330E1
7.462984375E0,-3.830722719E-2,9.883264542E0,2.509123421E1
7.467989063E0,8.044517636E-1,1.141555405E1,2.903687859E1
7.472995313E0,2.298433542E0,1.287122822E1,3.351882553E1
7.478001563E0,4.635174274E0,1.402044487E1,3.830722809E1
7.483006250E0,7.201758862E0,1.505473995E1,4.328716660E1
7.488012500E0,9.346963882E0,1.593580627E1,4.761588287E1
7.492985938E0,1.076433086E1,1.639549255E1,5.091030502E1
7.497992188E0,1.160709000E1,1.647210693E1,5.282566452E1
7.502996875E0,1.210508347E1,1.589749908E1,5.408980560E1
7.508003125E0,1.248815632E1,1.451843929E1,5.543055725E1
7.513009375E0,1.325430107E1,1.237323475E1,5.684792328E1
7.517982813E0,1.463336086E1,9.998186111E0,5.807375717E1
7.522987500E0,1.635718536E1,7.584830761E0,5.815037155E1
7.527993750E0,1.811931801E1,5.286397457E0,5.634992981E1
7.533000000E0,1.942176437E1,3.332728863E0,5.244259262E1
7.538004688E0,1.984314346E1,2.106897593E0,4.616020966E1
7.543010938E0,1.953668594E1,1.302445769E0,3.815399933E1
7.547984375E0,1.827254677E1,8.810662031E-1,2.953487206E1
7.552990625E0,1.651041412E1,5.746083856E-1,2.106897545E1
7.557995313E0,1.467166805E1,5.746083856E-1,1.359906578E1
7.563001563E0,1.264138508E1,8.427590132E-1,7.508216381E0
7.568006250E0,1.061110210E1,1.110909581E0,3.371036053E0
7.573012500E0,8.657433510E0,1.110909581E0,6.512228847E-1
7.577985938E0,6.588842869E0,9.959878922E-1,-1.034295082E0
7.582992188E0,4.558559895E0,6.895300746E-1,-1.953668594E0
7.587998438E0,2.604891539E0,4.213795066E-1,-2.643198729E0
7.593003125E0,1.187524080E0,-1.149216816E-1,-3.371036053E0
7.598009375E0,2.681505978E-1,-6.129156351E-1,-4.213795185E0
7.602982813E0,-7.661445439E-2,-9.576807022E-1,-5.248090267E0
7.607989063E0,-1.149216816E-1,-1.034295082E0,-6.588842869E0
7.612993750E0,2.298433632E-1,-9.576807022E-1,-7.776367188E0
7.618000000E0,9.576807022E-1,-6.512228847E-1,-8.772355080E0
7.623006250E0,1.915361404E0,-3.830722570E-1,-9.385271072E0
7.628010938E0,2.796427488E0,-2.298433632E-1,-9.346963882E0
7.632985938E0,3.485957623E0,-1.149216816E-1,-8.772355080E0
7.637990625E0,3.715801001E0,0.000000000E0,-7.508216381E0
7.642995313E0,3.256114244E0,3.830722719E-2,-5.477933407E0
7.648003125E0,1.991975784E0,7.661445439E-2,-3.064578056E0
7.653007813E0,6.512228847E-1,2.681505978E-1,-4.213795066E-1
7.657981250E0,-5.746083856E-1,3.447650373E-1,1.953668594E0
7.662987500E0,-1.417367458E0,3.447650373E-1,3.945644379E0
7.667992188E0,-2.068590164E0,1.149216816E-1,5.363011837E0
7.672998438E0,-2.643198729E0,-1.149216816E-1,6.320692539E0
7.678003125E0,-3.256114244E0,-1.915361285E-1,6.971915245E0
7.683009375E0,-4.098873138E0,-3.830722570E-1,7.508216381E0
7.687984375E0,-4.711789131E0,-4.596867263E-1,7.852981567E0
7.692989063E0,-5.171475887E0,-6.512228847E-1,7.852981567E0
7.697993750E0,-5.516240597E0,-6.895300746E-1,7.393294811E0
7.703000000E0,-5.861005783E0,-4.979939461E-1,6.627150536E0
7.708006250E0,-5.746084213E0,-3.447650373E-1,5.861005783E0
7.713010938E0,-5.401319027E0,-3.830722719E-2,4.635174274E0
7.717985938E0,-4.865017891E0,4.213795066E-1,3.217807055E0
7.722990625E0,-4.213795185E0,8.044517636E-1,1.800439715E0
7.727996875E0,-3.600879431E0,1.187524080E0,3.447650373E-1
7.733003125E0,-3.026270866E0,1.417367458E0,-9.959878922E-1
7.738007813E0,-2.451662540E0,1.762132406E0,-2.106897593E0
7.742982813E0,-2.451662540E0,1.762132406E0,-3.332728863E0
7.747987500E0,-1.800439715E0,1.953668594E0,-3.179499865E0
7.752993750E0,-1.187524080E0,2.221819162E0,-3.983951569E0
7.757998438E0,-5.746083856E-1,2.566584110E0,-4.865017891E0
7.763004688E0,-7.661445439E-2,2.758120298E0,-5.248090267E0
7.768010938E0,4.979939461E-1,2.911349297E0,-5.592854977E0
7.772984375E0,8.810662031E-1,2.949656487E0,-5.707777023E0
7.777990625E0,1.187524080E0,3.064578056E0,-5.707777023E0
7.782995313E0,1.340752959E0,2.949656487E0,-5.707777023E0
7.788001563E0,1.379060149E0,2.796427488E0,-5.592854977E0
7.793006250E0,1.149216771E0,2.528276920E0,-5.401319027E0
7.798012500E0,7.278373241E-1,2.336740971E0,-5.286397457E0
7.802985938E0,4.596867263E-1,2.183511972E0,-5.209783077E0
7.807992188E0,1.915361285E-1,2.068590164E0,-4.979939461E0
7.812996875E0,-7.661445439E-2,1.915361404E0,-4.826710701E0
7.818003125E0,-3.064578176E-1,1.877054095E0,-4.405331135E0
7.823009375E0,-4.979939461E-1,1.762132406E0,-4.137180328E0
7.827982813E0,-8.427590132E-1,1.608903527E0,-3.754108191E0
7.832989063E0,-1.225831270E0,1.532289028E0,-3.409343243E0
7.837993750E0,-1.379060149E0,1.455674648E0,-2.987963676E0
7.843000000E0,-1.532289028E0,1.302445769E0,-2.528276920E0
7.848004688E0,-1.723825216E0,1.302445769E0,-2.068590164E0
7.853010938E0,-1.570596337E0,1.493981838E0,-1.455674648E0
7.857984375E0,-1.417367458E0,1.570596337E0,-1.149216771E0
7.862990625E0,-1.302445769E0,1.838746905E0,-9.576807022E-1
7.867995313E0,-1.072602391E0,2.068590164E0,-9.576807022E-1
7.873003125E0,-9.193734527E-1,2.298433542E0,-8.810662031E-1
7.878007813E0,-8.044517636E-1,2.566584110E0,-9.193734527E-1
7.882981250E0,-6.895300746E-1,2.911349297E0,-6.895300746E-1
7.887987500E0,-5.363011956E-1,3.102885485E0,-4.596867263E-1
7.892992188E0,-4.213795066E-1,3.217807055E0,-3.830722719E-2
7.897998438E0,-4.979939461E-1,3.409343243E0,5.746083856E-1
7.903003125E0,-6.895300746E-1,3.371036053E0,1.149216771E0
7.908009375E0,-1.149216771E0,3.409343243E0,2.030282974E0
7.912982813E0,-1.608903527E0,3.409343243E0,2.796427488E0
7.917989063E0,-1.991975784E0,3.485957623E0,3.677493811E0
7.922993750E0,-2.451662540E0,3.562572241E0,4.635174274E0
7.928000000E0,-2.758120298E0,3.830722809E0,5.554547787E0
7.933006250E0,-2.758120298E0,4.098873138E0,6.167463779E0
7.938010938E0,-2.451662540E0,4.520252705E0,6.818686485E0
7.942984375E0,-1.953668594E0,4.941632271E0,7.623138428E0
7.947990625E0,-1.149216771E0,5.324704647E0,8.350975990E0
7.952995313E0,-1.915361285E-1,5.861005783E0,9.308655739E0
7.958001563E0,4.596867263E-1,6.588842869E0,1.018972206E1
7.963007813E0,5.746083856E-1,7.699752808E0,1.099417400E1
7.967982813E0,1.915361285E-1,8.810662270E0,1.164539719E1
7.972987500E0,-6.129156351E-1,1.011310768E1,1.214339066E1
7.978020313E0,-1.685518026E0,1.130063248E1,1.279461384E1
7.982998438E0,-2.949656487E0,1.222000504E1,1.325430107E1
7.988004688E0,-4.213795185E0,1.321599293E1,1.390552330E1
7.993010938E0,-5.707777023E0,1.421198082E1,1.463336086E1
7.997984375E0,-7.048529625E0,1.516966152E1,1.562934875E1
8.002989063E0,-8.159439087E0,1.582088470E1,1.693179512E1
8.007993750E0,-8.465897560E0,1.612734222E1,1.827254677E1
8.013000000E0,-7.776367188E0,1.582088470E1,1.968991470E1
8.018006250E0,-6.282385349E0,1.509304714E1,2.160527611E1
8.023010938E0,-4.328716755E0,1.448013210E1,2.344402313E1
8.027985938E0,-2.145204782E0,1.375229454E1,2.470816231E1
8.032990625E0,2.681505978E-1,1.313937855E1,2.524446297E1
8.037996875E0,2.796427488E0,1.229662037E1,2.501461983E1
8.043001563E0,5.286397457E0,1.130063248E1,2.382709503E1
8.048007813E0,7.508216381E0,1.038125896E1,2.195004082E1
8.052981250E0,9.155426979E0,9.461885452E0,1.965160751E1
8.057987500E0,1.022802925E1,8.734047890E0,1.716163826E1
8.062993750E0,1.076433086E1,8.082824707E0,1.478658962E1
8.067998438E0,1.080263805E1,7.316680431E0,1.287122822E1
8.073004688E0,1.041956615E1,6.550535679E0,1.145386124E1
8.078010938E0,9.768342972E0,5.746084213E0,1.053448772E1
8.082984375E0,9.040505409E0,4.979939461E0,1.003649330E1
8.087989063E0,8.006210327E0,3.983951569E0,9.883264542E0
8.092995313E0,6.818686485E0,3.141192675E0,9.998186111E0
8.098001563E0,5.707777023E0,2.336740971E0,1.015141487E1
8.103006250E0,4.865017891E0,1.493981838E0,1.057279491E1
8.108010938E0,4.175487995E0,7.278373241E-1,1.110909557E1
8.112987500E0,3.715801001E0,1.532289088E-1,1.179862595E1
8.117992188E0,3.332728863E0,-3.447650373E-1,1.218169785E1
8.122996875E0,3.332728863E0,-3.447650373E-1,1.218169785E1
8.128003125E0,2.949656487E0,-9.193734527E-1,1.248815632E1
8.133007813E0,2.911349297E0,-1.455674648E0,1.252646351E1
8.137982813E0,3.102885485E0,-2.106897593E0,1.244984913E1
8.142989063E0,3.524264812E0,-2.758120298E0,1.237323475E1
8.147993750E0,4.252102375E0,-3.447650433E0,1.233492756E1
8.153000000E0,4.903325081E0,-4.022258759E0,1.222000504E1
8.158006250E0,5.363011837E0,-4.558559895E0,1.187524033E1
8.163010938E0,6.129156113E0,-5.209783077E0,1.137724686E1
8.167984375E0,6.856993675E0,-5.669469833E0,1.061110210E1
8.172990625E0,7.584830761E0,-6.014234543E0,9.844957352E0
8.177995313E0,8.389283180E0,-6.282385349E0,8.772355080E0
8.183001563E0,9.117119789E0,-6.397306919E0,7.699752808E0
8.188007813E0,9.691728592E0,-6.627150536E0,6.435614109E0
8.192981250E0,1.034295177E1,-6.895300865E0,5.094861031E0
8.197987500E0,1.076433086E1,-7.125144482E0,3.907337189E0
8.202992188E0,1.095586681E1,-7.316680431E0,2.796427488E0
8.207998438E0,1.095586681E1,-7.469909191E0,1.838746905E0
8.213004688E0,1.099417400E1,-7.469909191E0,1.110909581E0
8.218009375E0,1.084094524E1,-7.508216381E0,4.596867263E-1
8.222984375E0,1.064940929E1,-7.546523571E0,2.298433632E-1
8.227989063E0,1.030464458E1,-7.431602001E0,1.915361285E-1
8.232995313E0,9.998186111E0,-7.393294811E0,4.596867263E-1
8.238000000E0,9.538499832E0,-7.048529625E0,6.895300746E-1
8.243006250E0,8.963891029E0,-6.933608055E0,1.110909581E0
8.248010938E0,8.389283180E0,-6.627150536E0,1.379060149E0
8.252985938E0,8.082824707E0,-6.473921299E0,1.800439715E0
8.257990625E0,8.006210327E0,-6.397306919E0,2.336740971E0
8.262996875E0,9.232041359E0,-5.746084213E0,3.945644379E0
8.268003125E0,9.232041359E0,-5.746084213E0,3.945644379E0
8.273009375E0,9.921571732E0,-5.018246651E0,4.635174274E0
8.277981250E0,1.061110210E1,-4.213795185E0,5.018246651E0
8.282987500E0,1.107078838E1,-3.409343243E0,4.979939461E0
8.287993750E0,1.133893967E1,-2.681505919E0,4.481945515E0
8.292998438E0,1.145386124E1,-2.068590164E0,3.409343243E0
8.298004688E0,1.172201157E1,-1.877054095E0,2.336740971E0
8.303009375E0,1.199016190E1,-1.800439715E0,1.417367458E0
8.307982813E0,1.229662037E1,-1.877054095E0,6.512228847E-1
8.312989063E0,1.279461384E1,-1.953668594E0,3.447650373E-1
8.317995313E0,1.306276417E1,-2.030282974E0,8.810662031E-1
8.323000000E0,1.321599293E1,-2.260126352E0,2.566584110E0
8.328006250E0,1.329260826E1,-2.260126352E0,5.209783077E0
8.333012500E0,1.313937855E1,-2.106897593E0,8.312667847E0
8.337985938E0,1.287122822E1,-1.800439715E0,1.149216843E1
8.343034375E0,1.294784260E1,-1.417367458E0,1.402044487E1
8.347996875E0,1.336922264E1,-1.034295082E0,1.532289124E1
8.353003125E0,1.371398735E1,-5.363011956E-1,1.528458405E1
8.358009375E0,1.379060173E1,1.915361285E-1,1.409705925E1
8.362982813E0,1.348414421E1,1.034295082E0,1.218169785E1
8.367987500E0,1.290953541E1,2.145204782E0,1.041956615E1
8.372993750E0,1.210508347E1,3.524264812E0,9.346963882E0
8.378000000E0,1.091755962E1,4.788403511E0,9.730035782E0
8.383004688E0,9.270348549E0,5.861005783E0,1.206677628E1
8.388009375E0,7.240066051E0,6.550535679E0,1.582088470E1
8.392984375E0,5.133168221E0,6.780379295E0,2.037944412E1
8.397990625E0,2.911349297E0,6.550535679E0,2.509123421E1
8.402995313E0,9.193734527E-1,6.167463779E0,2.896026421E1
8.408001563E0,-8.044517636E-1,5.861005783E0,3.156515503E1
8.413006250E0,-2.336740971E0,5.746084213E0,3.302082825E1
8.418012500E0,-3.983951569E0,5.937620163E0,3.325067139E1
8.422985938E0,-5.439626217E0,6.167463779E0,3.252283478E1
8.427992188E0,-6.742072105E0,6.435614109E0,3.110546875E1
8.432998438E0,-7.776367188E0,6.856993675E0,2.907518578E1
8.438003125E0,-8.274360657E0,7.278373241E0,2.685336685E1
8.443009375E0,-8.350975990E0,7.699752808E0,2.436339569E1
8.447982813E0,-8.121131897E0,8.121131897E0,2.183511925E1
8.452989063E0,-7.623138428E0,8.427590370E0,1.919192123E1
8.457993750E0,-6.895300865E0,8.772355080E0,1.647210693E1
8.463000000E0,-6.167463779E0,9.232041359E0,1.356075859E1
8.468004688E0,-5.324704647E0,9.423578262E0,1.122401714E1
8.473010938E0,-4.596867085E0,9.653421402E0,9.078812599E0
8.477985938E0,-4.060565948E0,9.730035782E0,7.278373241E0
8.482990625E0,-3.639186621E0,9.576807022E0,5.822698593E0
8.487996875E0,-3.141192675E0,9.385271072E0,4.711789131E0
8.493001563E0,-2.834734917E0,9.078812599E0,3.945644379E0
8.498007813E0,-2.834734917E0,8.465897560E0,3.409343243E0
8.502981250E0,-2.643198729E0,8.695740700E0,3.409343243E0
8.507987500E0,-2.604891539E0,8.159439087E0,3.064578056E0
8.512992188E0,-2.911349297E0,7.623138428E0,2.719813108E0
8.517998438E0,-3.371036053E0,7.048529625E0,2.451662540E0
8.523004688E0,-4.022258759E0,6.627150536E0,2.145204782E0
8.528009375E0,-4.405331135E0,6.244078159E0,2.145204782E0
8.532984375E0,-4.788403511E0,6.052541733E0,2.260126352E0
8.537989063E0,-5.209783077E0,5.899312973E0,2.489969730E0
8.542993750E0,-5.439626217E0,5.822698593E0,2.643198729E0
8.548000000E0,-5.477933407E0,5.746084213E0,2.719813108E0
8.553006250E0,-5.324704647E0,5.707777023E0,2.528276920E0
8.558010938E0,-4.903325081E0,5.669469833E0,2.030282974E0
8.562985938E0,-4.481945515E0,5.784391403E0,1.608903527E0
8.567990625E0,-4.022258759E0,5.899312973E0,1.072602391E0
8.572996875E0,-3.562572241E0,5.861005783E0,6.895300746E-1
8.578003125E0,-3.217807055E0,5.899312973E0,3.830722570E-1
8.583007813E0,-2.873042107E0,5.975927353E0,7.661445439E-2
8.587981250E0,-2.796427488E0,6.052541733E0,-1.149216816E-1
8.592989063E0,-2.681505919E0,5.975927353E0,-1.915361285E-1
8.597992188E0,-2.681505919E0,5.784391403E0,-1.532289088E-1
8.603000000E0,-2.796427488E0,5.631162167E0,1.532289088E-1
8.608004688E0,-3.102885485E0,5.784391403E0,5.363011956E-1
8.613009375E0,-3.371036053E0,5.822698593E0,1.110909581E0
8.617984375E0,-3.754108191E0,5.861005783E0,1.723825216E0
8.622989063E0,-4.060565948E0,5.861005783E0,2.260126352E0
8.627993750E0,-4.405331135E0,5.861005783E0,2.758120298E0
8.633001563E0,-4.865017891E0,5.707777023E0,3.409343243E0
8.638006250E0,-5.439626217E0,5.516240597E0,3.945644379E0
8.643012500E0,-5.861005783E0,5.363011837E0,4.558559895E0
8.647985938E0,-6.167463779E0,5.324704647E0,5.286397457E0
8.652992188E0,-6.397306919E0,5.516240597E0,6.052541733E0
8.657996875E0,-6.473921299E0,5.822698593E0,6.971915245E0
8.663003125E0,-6.435614109E0,6.358999729E0,8.121131897E0
8.668007813E0,-6.320692539E0,7.010222435E0,9.615114212E0
8.672982813E0,-6.205770969E0,7.661445618E0,1.141555405E1
8.677987500E0,-5.937620163E0,8.312667847E0,1.313937855E1
8.682993750E0,-5.707777023E0,8.772355080E0,1.451843929E1
8.687998438E0,-5.631162167E0,9.155426979E0,1.551442719E1
8.693004688E0,-5.707777023E0,9.500192642E0,1.585919189E1
8.698010938E0,-5.975927353E0,9.883264542E0,1.585919189E1
8.702984375E0,-6.512228489E0,1.068771648E1,1.547612000E1
8.707990625E0,-7.010222435E0,1.141555405E1,1.509304714E1
8.712995313E0,-7.163451672E0,1.214339066E1,1.478658962E1
8.718001563E0,-7.086836815E0,1.287122822E1,1.467166805E1
8.723006250E0,-6.856993675E0,1.371398735E1,1.478658962E1
8.728012500E0,-6.320692539E0,1.425028896E1,1.547612000E1
8.732987500E0,-5.439626217E0,1.474828243E1,1.643379974E1
8.737992188E0,-4.290409565E0,1.474828243E1,1.762132454E1
8.742996875E0,-2.719813108E0,1.428859615E1,1.888546371E1
8.748003125E0,-1.149216771E0,1.348414421E1,1.984314346E1
8.753009375E0,3.064578176E-1,1.241154194E1,2.053267288E1
8.757982813E0,1.417367458E0,1.110909557E1,2.080082512E1
8.762989063E0,2.221819162E0,9.500192642E0,2.057098007E1
8.767993750E0,2.834734917E0,7.776367188E0,2.018790817E1
8.773000000E0,3.294421434E0,6.129156113E0,1.953668594E1
8.778004688E0,3.754108191E0,4.596867085E0,1.854069710E1
8.783010938E0,4.022258759E0,3.332728863E0,1.739148140E1
8.787984375E0,4.367023945E0,2.260126352E0,1.616564941E1
8.792990625E0,4.635174274E0,1.493981838E0,1.478658962E1
8.797995313E0,4.711789131E0,9.576807022E-1,1.348414421E1
8.803001563E0,4.750096321E0,5.363011956E-1,1.202846909E1
8.808007813E0,4.788403511E0,2.681505978E-1,1.095586681E1
8.812981250E0,4.750096321E0,1.149216816E-1,9.998186111E0
8.817987500E0,4.673481941E0,-3.830722719E-2,8.887276649E0
8.822992188E0,4.635174274E0,-1.149216816E-1,7.891288757E0
8.827998438E0,4.673481941E0,-3.447650373E-1,7.048529625E0
8.833004688E0,4.635174274E0,-5.746083856E-1,6.244078159E0
8.838009375E0,4.711789131E0,-1.034295082E0,5.477933407E0
8.842984375E0,4.711789131E0,-1.570596337E0,4.941632271E0
8.847989063E0,4.673481941E0,-2.106897593E0,4.558559895E0
8.852993750E0,4.558559895E0,-2.758120298E0,4.481945515E0
8.858000000E0,4.328716755E0,-3.371036053E0,4.443638325E0
8.863006250E0,4.098873138E0,-4.060565948E0,4.596867085E0
8.868012500E0,3.869029999E0,-4.941632271E0,4.673481941E0
8.872985938E0,3.869029999E0,-5.554547787E0,5.286397457E0
8.877992188E0,3.792415380E0,-5.822698593E0,4.979939461E0
8.882996875E0,3.983951569E0,-6.703764915E0,4.979939461E0
8.888003125E0,4.367023945E0,-7.661445618E0,4.941632271E0
8.893007813E0,4.979939461E0,-8.504204750E0,4.673481941E0
8.897982813E0,5.861005783E0,-9.232041359E0,4.290409565E0
8.902987500E0,6.703764915E0,-9.768342972E0,3.639186621E0
8.907993750E0,7.699752808E0,-1.015141487E1,2.911349297E0
8.912998438E0,9.040505409E0,-1.030464458E1,2.221819162E0
8.918004688E0,1.015141487E1,-9.998186111E0,1.417367458E0
8.923009375E0,1.095586681E1,-9.538499832E0,6.512228847E-1
8.927984375E0,1.141555405E1,-8.925583839E0,-4.596867263E-1
8.932990625E0,1.160709000E1,-8.427590370E0,-1.302445769E0
8.937995313E0,1.141555405E1,-7.852981567E0,-2.106897593E0
8.943001563E0,1.084094524E1,-7.431602001E0,-2.681505919E0
8.948006250E0,1.022802925E1,-7.125144482E0,-3.256114244E0
8.953012500E0,9.346963882E0,-6.933608055E0,-3.256114244E0
8.957985938E0,8.619126320E0,-6.933608055E0,-2.528276920E0
8.962992188E0,7.967903137E0,-6.933608055E0,-8.810662031E-1
8.967996875E0,7.278373241E0,-7.048529625E0,1.225831270E0
8.973003125E0,6.588842869E0,-7.163451672E0,3.064578056E0
8.978009375E0,6.167463779E0,-7.316680431E0,4.290409565E0
8.982982813E0,6.014234543E0,-7.546523571E0,4.903325081E0
8.987987500E0,5.937620163E0,-7.776367188E0,4.941632271E0
8.992993750E0,5.937620163E0,-7.699752808E0,4.673481941E0
8.998000000E0,6.014234543E0,-7.469909191E0,4.405331135E0
9.003004688E0,6.014234543E0,-7.163451672E0,3.907337189E0
9.008010938E0,6.014234543E0,-6.780379295E0,3.600879431E0
9.012984375E0,5.746084213E0,-6.244078159E0,3.600879431E0
9.017989063E0,5.439626217E0,-5.707777023E0,3.524264812E0
9.022995313E0,5.133168221E0,-4.941632271E0,3.907337189E0
9.028001563E0,4.328716755E0,-3.830722809E0,4.635174274E0
9.033006250E0,3.600879431E0,-2.643198729E0,5.554547787E0
9.038012500E0,2.873042107E0,-1.532289028E0,7.240066051E0
9.042985938E0,2.183511972E0,-5.363011956E-1,9.806650162E0
9.047992188E0,1.608903527E0,5.746083856E-1,1.379060173E1
9.052998438E0,1.417367458E0,1.877054095E0,1.854069710E1
9.058003125E0,1.608903527E0,3.485957623E0,2.409524536E1
9.063009375E0,1.953668594E0,5.554547787E0,2.903687859E1
9.067982813E0,2.566584110E0,7.738059998E0,3.259944916E1
9.072989063E0,3.715801001E0,9.883264542E0,3.436158371E1
9.077993750E0,5.363011837E0,1.141555405E1,3.485957718E1
9.083000000E0,7.508216381E0,1.252646351E1,3.478296280E1
9.088006250E0,9.385271072E0,1.310107136E1,3.485957718E1
9.093010938E0,1.080263805E1,1.325430107E1,3.558741379E1
9.097985938E0,1.153047562E1,1.310107136E1,3.688985825E1
9.102990625E0,1.156878281E1,1.256477070E1,3.834553528E1
9.107995313E0,1.095586681E1,1.202846909E1,3.937982941E1
9.113001563E0,9.270348549E0,1.160709000E1,3.964797974E1
9.118007813E0,7.086836815E0,1.137724686E1,3.865199280E1
9.122981250E0,4.673481941E0,1.153047562E1,3.627694321E1
9.127987500E0,2.298433542E0,1.183693314E1,3.286759949E1
9.132993750E0,1.532289088E-1,1.229662037E1,2.876872826E1
9.137998438E0,-1.455674648E0,1.290953541E1,2.459324074E1
9.143003125E0,-2.911349297E0,1.333091545E1,2.091574669E1
9.148009375E0,-4.022258759E0,1.359906578E1,1.758301735E1
9.152984375E0,-4.750096321E0,1.336922264E1,1.463336086E1
9.157989063E0,-5.094861031E0,1.275630665E1,1.241154194E1
9.162993750E0,-4.826710701E0,1.187524033E1,1.080263805E1
9.168001563E0,-4.290409565E0,1.084094524E1,9.653421402E0
9.173006250E0,-3.217807055E0,9.921571732E0,8.848969460E0
9.178010938E0,-1.953668594E0,9.078812599E0,7.852981567E0
9.182985938E0,-6.512228847E-1,8.350975990E0,7.010222435E0
9.187990625E0,6.895300746E-1,7.623138428E0,5.784391403E0
9.192996875E0,1.647210717E0,7.048529625E0,4.098873138E0
9.198003125E0,2.183511972E0,6.358999729E0,2.221819162E0
9.203007813E0,2.221819162E0,5.822698593E0,6.129156351E-1
9.207981250E0,2.030282974E0,5.248090267E0,-8.044517636E-1
9.212987500E0,1.608903527E0,4.673481941E0,-1.915361404E0
9.217993750E0,1.072602391E0,4.367023945E0,-2.681505919E0
9.222998438E0,4.596867263E-1,4.175487995E0,-3.141192675E0
9.228004688E0,-1.915361285E-1,3.945644379E0,-3.294421434E0
9.233010938E0,-9.193734527E-1,3.754108191E0,-3.294421434E0
9.237984375E0,-1.570596337E0,3.715801001E0,-3.179499865E0
9.242989063E0,-2.260126352E0,3.715801001E0,-3.294421434E0
9.247995313E0,-3.026270866E0,3.792415380E0,-3.256114244E0
9.253000000E0,-3.026270866E0,3.792415380E0,-3.256114244E0
9.258006250E0,-3.830722809E0,3.983951569E0,-3.294421434E0
9.263012500E0,-4.979939461E0,4.367023945E0,-3.447650433E0
9.267987500E0,-4.979939461E0,4.367023945E0,-3.447650433E0
9.272992188E0,-5.554547787E0,4.596867085E0,-3.754108191E0
9.277996875E0,-6.014234543E0,4.865017891E0,-3.792415380E0
9.283003125E0,-6.358999729E0,5.248090267E0,-4.022258759E0
9.288007813E0,-6.588842869E0,5.477933407E0,-4.137180328E0
9.292982813E0,-6.895300865E0,5.669469833E0,-3.945644379E0
9.297987500E0,-7.163451672E0,5.784391403E0,-3.600879431E0
9.302993750E0,-7.393294811E0,5.822698593E0,-2.911349297E0
9.308000000E0,-7.699752808E0,5.631162167E0,-2.030282974E0
9.313006250E0,-8.006210327E0,5.363011837E0,-9.193734527E-1
9.318010938E0,-8.542511940E0,5.209783077E0,3.064578176E-1
9.322984375E0,-8.887276649E0,4.979939461E0,1.570596337E0
9.327990625E0,-9.117119789E0,4.865017891E0,2.681505919E0
9.332995313E0,-9.193734169E0,4.865017891E0,3.677493811E0
9.338001563E0,-9.078812599E0,4.788403511E0,4.481945515E0
9.343007813E0,-8.887276649E0,4.865017891E0,5.171475887E0
9.347981250E0,-8.580819130E0,5.094861031E0,6.090848923E0
9.352987500E0,-8.350975990E0,5.477933407E0,7.163451672E0
9.357992188E0,-8.350975990E0,5.746084213E0,8.695740700E0
9.362998438E0,-8.504204750E0,6.090848923E0,1.076433086E1
9.368003125E0,-9.040505409E0,6.397306919E0,1.336922264E1
9.373009375E0,-9.768342972E0,6.818686485E0,1.643379974E1
9.377982813E0,-1.041956615E1,7.354987621E0,1.957499313E1
9.382989063E0,-1.153047562E1,8.082824707E0,2.214157677E1
9.387993750E0,-1.244984913E1,8.925583839E0,2.394201660E1
9.393000000E0,-1.283292103E1,9.691728592E0,2.501461983E1
9.398006250E0,-1.256477070E1,1.034295177E1,2.551261330E1
9.403010938E0,-1.141555405E1,1.072602367E1,2.604891396E1
9.407985938E0,-9.615114212E0,1.107078838E1,2.712151718E1
9.412990625E0,-7.240066051E0,1.084094524E1,2.853888512E1
9.417996875E0,-4.443638325E0,9.998186111E0,3.033932304E1
9.423003125E0,-1.685518026E0,8.887276649E0,3.179499817E1
9.428007813E0,9.959878922E-1,7.201758862E0,3.248452759E1
9.432982813E0,3.447650433E0,5.324704647E0,3.210145569E1
9.437987500E0,5.401319027E0,3.562572241E0,3.095223999E1
9.442992188E0,6.895300865E0,2.068590164E0,2.884534264E1
9.447998438E0,7.738059998E0,1.110909581E0,2.601060677E1
9.453004688E0,8.121131897E0,4.979939461E-1,2.286941528E1
9.458009375E0,8.121131897E0,7.661445439E-2,1.972822189E1
9.462984375E0,7.967903137E0,-1.532289088E-1,1.685518074E1
9.467989063E0,7.623138428E0,-4.213795066E-1,1.428859615E1
9.472995313E0,7.316680431E0,-6.895300746E-1,1.229662037E1
9.478000000E0,6.971915245E0,-8.810662031E-1,1.061110210E1
9.483006250E0,6.627150536E0,-1.225831270E0,9.576807022E0
9.488010938E0,6.588842869E0,-1.455674648E0,8.810662270E0
9.492985938E0,6.665457726E0,-1.723825216E0,8.274360657E0
9.497990625E0,6.818686485E0,-1.953668594E0,8.082824707E0
9.502996875E0,6.742072105E0,-2.068590164E0,7.967903137E0
9.508001563E0,6.512228489E0,-2.183511972E0,8.121131897E0
9.513007813E0,5.937620163E0,-2.375048161E0,8.274360657E0
9.517982813E0,5.133168221E0,-2.834734917E0,8.695740700E0
9.522987500E0,4.328716755E0,-3.409343243E0,9.078812599E0
9.527993750E0,3.447650433E0,-4.252102375E0,9.385271072E0
9.533000000E0,2.873042107E0,-5.018246651E0,9.921571732E0
9.538004688E0,2.566584110E0,-5.822698593E0,1.049618053E1
9.543010938E0,2.451662540E0,-6.665457726E0,1.080263805E1
9.547984375E0,2.643198729E0,-7.431602001E0,1.084094524E1
9.552990625E0,2.987963676E0,-8.197746277E0,1.045787334E1
9.557995313E0,3.485957623E0,-8.810662270E0,9.959878922E0
9.563001563E0,4.137180328E0,-9.155426979E0,9.193734169E0
9.568006250E0,4.865017891E0,-9.270348549E0,8.044517517E0
9.573012500E0,5.631162167E0,-9.346963882E0,6.818686485E0
9.577985938E0,6.358999729E0,-9.155426979E0,5.401319027E0
9.582992188E0,6.818686485E0,-8.848969460E0,4.060565948E0
9.587996875E0,7.048529625E0,-8.312667847E0,2.719813108E0
9.593003125E0,7.125144482E0,-7.699752808E0,1.417367458E0
9.598007813E0,7.048529625E0,-7.086836815E0,1.149216816E-1
9.602982813E0,6.895300865E0,-6.550535679E0,-1.149216771E0
9.607987500E0,6.856993675E0,-5.937620163E0,-2.068590164E0
9.612993750E0,6.895300865E0,-5.324704647E0,-2.949656487E0
9.618000000E0,6.780379295E0,-4.711789131E0,-3.639186621E0
9.623004688E0,6.818686485E0,-4.328716755E0,-4.252102375E0
9.628010938E0,6.818686485E0,-3.715801001E0,-4.711789131E0
9.632984375E0,6.703764915E0,-4.022258759E0,-4.711789131E0
9.637990625E0,6.358999729E0,-3.677493811E0,-5.018246651E0
9.642995313E0,6.205770969E0,-3.447650433E0,-4.979939461E0
9.648001563E0,5.861005783E0,-3.179499865E0,-4.673481941E0
9.653007813E0,5.439626217E0,-2.987963676E0,-4.137180328E0
9.657981250E0,5.056553841E0,-2.758120298E0,-3.332728863E0
9.662987500E0,4.481945515E0,-2.528276920E0,-2.451662540E0
9.667992188E0,4.060565948E0,-2.260126352E0,-1.493981838E0
9.672998438E0,3.715801001E0,-1.877054095E0,-6.129156351E-1
9.678003125E0,3.600879431E0,-1.417367458E0,2.298433632E-1
9.683009375E0,3.792415380E0,-9.959878922E-1,1.149216771E0
9.687984375E0,4.443638325E0,-7.661445141E-1,1.877054095E0
9.692989063E0,5.056553841E0,-4.596867263E-1,2.489969730E0
9.697995313E0,5.822698593E0,-3.447650373E-1,3.064578056E0
9.703000000E0,6.550535679E0,-3.064578176E-1,3.562572241E0
9.708004688E0,7.393294811E0,-1.532289088E-1,4.060565948E0
9.713010938E0,8.006210327E0,1.915361285E-1,4.826710701E0
9.717985938E0,8.274360657E0,6.512228847E-1,6.397306919E0
9.722990625E0,8.542511940E0,1.455674648E0,8.887276649E0
9.727995313E0,9.270348549E0,2.375048161E0,1.214339066E1
9.733003125E0,1.061110210E1,3.179499865E0,1.551442719E1
9.738007813E0,1.252646351E1,4.022258759E0,1.838746834E1
9.742981250E0,1.436521053E1,5.133168221E0,2.064759636E1
9.747987500E0,1.647210693E1,6.320692539E0,2.217988396E1
9.752992188E0,1.819593239E1,7.546523571E0,2.309925842E1
9.757998438E0,1.942176437E1,8.504204750E0,2.367386627E1
9.763004688E0,2.022621536E1,9.078812599E0,2.424847412E1
9.768009375E0,2.068590355E1,9.002198219E0,2.463154793E1
9.772984375E0,2.060928917E1,8.925583839E0,2.509123421E1
9.777989063E0,1.999637222E1,8.695740700E0,2.539769173E1
9.782995313E0,1.888546371E1,8.389283180E0,2.539769173E1
9.788001563E0,1.739148140E1,8.197746277E0,2.532107735E1
9.793006250E0,1.574427032E1,8.006210327E0,2.470816231E1
9.798010938E0,1.394383049E1,7.623138428E0,2.363555908E1
9.802985938E0,1.218169785E1,7.240066051E0,2.217988396E1
9.807990625E0,1.041956615E1,6.895300865E0,2.041775131E1
9.812996875E0,8.619126320E0,6.588842869E0,1.842577553E1
9.818003125E0,6.703764915E0,6.320692539E0,1.616564941E1
9.823007813E0,4.865017891E0,6.014234543E0,1.421198082E1
9.827982813E0,3.179499865E0,5.784391403E0,1.241154194E1
9.832987500E0,1.570596337E0,5.631162167E0,1.091755962E1
9.837993750E0,3.447650373E-1,5.439626217E0,9.500192642E0
9.842998438E0,-7.661445141E-1,5.248090267E0,8.312667847E0
9.848004688E0,-1.570596337E0,5.056553841E0,7.393294811E0
9.853010938E0,-2.106897593E0,4.979939461E0,6.473921299E0
9.857984375E0,-2.451662540E0,4.903325081E0,5.631162167E0
9.862989063E0,-2.604891539E0,4.865017891E0,4.826710701E0
9.867995313E0,-2.528276920E0,4.788403511E0,3.907337189E0
9.873001563E0,-2.260126352E0,4.635174274E0,2.873042107E0
9.878006250E0,-1.991975784E0,4.520252705E0,1.991975784E0
9.883012500E0,-1.685518026E0,4.367023945E0,1.340752959E0
9.887985938E0,-1.379060149E0,4.137180328E0,6.512228847E-1
9.892992188E0,-1.110909581E0,3.945644379E0,1.532289088E-1
9.897996875E0,-6.129156351E-1,3.715801001E0,-1.149216816E-1
9.903003125E0,-3.447650373E-1,3.524264812E0,-3.447650373E-1
9.908009375E0,3.830722719E-2,3.064578056E0,-3.830722570E-1
9.912982813E0,2.681505978E-1,2.873042107E0,-3.830722570E-1
9.917989063E0,3.064578176E-1,2.604891539E0,-3.830722570E-1
9.922993750E0,3.064578176E-1,2.375048161E0,-4.213795066E-1
9.928000000E0,1.915361285E-1,2.298433542E0,-4.979939461E-1
9.933004688E0,3.830722719E-2,2.183511972E0,-7.661445141E-1
9.938010938E0,-3.064578176E-1,2.183511972E0,-1.110909581E0
9.942984375E0,-7.278373241E-1,2.145204782E0,-1.532289028E0
9.947990625E0,-1.072602391E0,2.260126352E0,-2.183511972E0
9.952996875E0,-1.379060149E0,2.260126352E0,-2.681505919E0
9.958001563E0,-1.762132406E0,2.375048161E0,-3.179499865E0
9.963007813E0,-2.106897593E0,2.375048161E0,-3.600879431E0
9.967981250E0,-2.566584110E0,2.451662540E0,-3.945644379E0
9.972987500E0,-2.949656487E0,2.604891539E0,-4.213795185E0
9.977992188E0,-3.485957623E0,2.758120298E0,-4.290409565E0
9.982998438E0,-4.060565948E0,2.911349297E0,-4.252102375E0
9.988004688E0,-4.558559895E0,2.987963676E0,-4.175487995E0
9.993009375E0,-5.209783077E0,3.141192675E0,-3.983951569E0
9.997982813E0,-5.822698593E0,3.294421434E0,-3.600879431E0
1.000298906E1,-5.746084213E0,3.294421434E0,-3.600879431E0
1.000799375E1,-6.244078159E0,3.485957623E0,-3.141192675E0
1.001300000E1,-6.742072105E0,3.677493811E0,-2.489969730E0
1.001800625E1,-7.048529625E0,4.022258759E0,-1.762132406E0
1.002301094E1,-7.201758862E0,4.443638325E0,-1.110909581E0
1.002798594E1,-7.354987621E0,4.826710701E0,-3.447650373E-1
1.003299062E1,-7.393294811E0,5.094861031E0,3.447650373E-1
1.003799688E1,-7.201758862E0,5.516240597E0,9.576807022E-1
1.004300312E1,-6.971915245E0,5.784391403E0,1.647210717E0
1.004800781E1,-6.627150536E0,6.129156113E0,2.489969730E0
1.005298125E1,-6.167463779E0,6.588842869E0,3.677493811E0
1.005798750E1,-5.975927353E0,7.278373241E0,5.248090267E0
1.006299219E1,-5.822698593E0,8.082824707E0,7.278373241E0
1.006799844E1,-5.592854977E0,8.925583839E0,9.921571732E0
1.007300469E1,-5.363011837E0,9.346963882E0,1.329260826E1
1.007800938E1,-5.133168221E0,9.653421402E0,1.719994545E1
1.008298438E1,-5.209783077E0,1.011310768E1,2.122220421E1
1.008798906E1,-5.516240597E0,1.099417400E1,2.497631264E1
1.009299375E1,-5.899312973E0,1.222000504E1,2.738966751E1
1.009800156E1,-6.167463779E0,1.371398735E1,2.850057793E1
1.010300625E1,-6.014234543E0,1.524627686E1,2.811750412E1
1.010801094E1,-5.516240597E0,1.681687355E1,2.658521652E1
1.011298594E1,-4.405331135E0,1.788947487E1,2.455493355E1
1.011799219E1,-2.719813108E0,1.884715652E1,2.263957214E1
1.012299688E1,-8.044517636E-1,1.972822189E1,2.129881859E1
1.012800313E1,1.723825216E0,2.018790817E1,2.064759636E1
1.013300781E1,4.673481941E0,2.003467941E1,2.045605850E1
1.013798281E1,7.546523571E0,1.923022842E1,2.091574669E1
1.014298750E1,9.844957352E0,1.804270363E1,2.156696892E1
1.014799375E1,1.107078838E1,1.662533569E1,2.195004082E1
1.015300000E1,1.133893967E1,1.513135433E1,2.156696892E1
1.015800469E1,1.064940929E1,1.336922264E1,2.045605850E1
1.016301094E1,9.461885452E0,1.160709000E1,1.900038528E1
1.016798438E1,8.121131897E0,9.883264542E0,1.731486702E1
1.017299062E1,6.512228489E0,8.312667847E0,1.570596313E1
1.017799531E1,4.750096321E0,6.703764915E0,1.421198082E1
1.018300156E1,2.949656487E0,5.516240597E0,1.298614979E1
1.018800781E1,1.455674648E0,4.367023945E0,1.187524033E1
1.019301250E1,3.830722719E-2,3.677493811E0,1.084094524E1
1.019798750E1,-1.110909581E0,3.064578056E0,9.921571732E0
1.020299219E1,-1.838746905E0,2.681505919E0,8.963891029E0
1.020799688E1,-1.953668594E0,2.221819162E0,8.082824707E0
1.021300312E1,-1.647210717E0,1.647210717E0,7.086836815E0
1.021800781E1,-1.072602391E0,1.149216771E0,6.129156113E0
1.022298281E1,-2.681505978E-1,5.746083856E-1,5.248090267E0
1.022798906E1,6.512228847E-1,0.000000000E0,4.558559895E0
1.023299375E1,1.762132406E0,-5.363011956E-1,3.945644379E0
1.023800000E1,2.719813108E0,-1.187524080E0,3.485957623E0
1.024300469E1,3.485957623E0,-1.838746905E0,3.409343243E0
1.024801094E1,3.945644379E0,-2.796427488E0,3.562572241E0
1.025298594E1,4.328716755E0,-3.754108191E0,3.869029999E0
1.025799063E1,4.711789131E0,-4.979939461E0,4.252102375E0
1.026299688E1,4.520252705E0,-7.584830761E0,4.865017891E0
1.026800312E1,4.520252705E0,-7.584830761E0,4.865017891E0
1.027300781E1,4.175487995E0,-8.619126320E0,4.673481941E0
1.027798281E1,4.022258759E0,-9.193734169E0,3.869029999E0
1.028298750E1,4.175487995E0,-9.576807022E0,2.719813108E0
1.028799219E1,4.405331135E0,-9.653421402E0,1.417367458E0
1.029299844E1,4.520252705E0,-9.538499832E0,1.532289088E-1
1.029800313E1,4.673481941E0,-9.461885452E0,-1.149216771E0
1.030300938E1,4.903325081E0,-9.078812599E0,-2.221819162E0
1.030798438E1,5.209783077E0,-8.619126320E0,-3.102885485E0
1.031298906E1,5.554547787E0,-7.967903137E0,-3.677493811E0
1.031799375E1,6.052541733E0,-7.278373241E0,-4.022258759E0
1.032300000E1,6.358999729E0,-6.512228489E0,-4.328716755E0
1.032800625E1,6.780379295E0,-5.861005783E0,-4.328716755E0
1.033301094E1,7.125144482E0,-5.209783077E0,-4.060565948E0
1.033798594E1,7.393294811E0,-4.596867085E0,-3.447650433E0
1.034299062E1,7.431602001E0,-4.137180328E0,-2.604891539E0
1.034799688E1,7.508216381E0,-3.754108191E0,-1.608903527E0
1.035300312E1,7.584830761E0,-3.409343243E0,-6.512228847E-1
1.035800781E1,7.661445618E0,-3.294421434E0,3.447650373E-1
1.036298125E1,7.508216381E0,-3.332728863E0,1.302445769E0
1.036798750E1,7.393294811E0,-3.485957623E0,2.183511972E0
1.037299219E1,7.086836815E0,-3.677493811E0,2.911349297E0
1.037800000E1,7.086836815E0,-3.677493811E0,3.524264812E0
1.038300469E1,6.627150536E0,-3.562572241E0,3.256114244E0
1.038800938E1,6.244078159E0,-3.677493811E0,3.562572241E0
1.039298438E1,5.937620163E0,-3.600879431E0,3.524264812E0
1.039798906E1,5.554547787E0,-3.524264812E0,3.485957623E0
1.040299531E1,5.401319027E0,-3.294421434E0,3.485957623E0
1.040800156E1,5.439626217E0,-3.102885485E0,3.332728863E0
1.041300625E1,5.516240597E0,-2.834734917E0,3.064578056E0
1.041801250E1,5.822698593E0,-2.528276920E0,3.217807055E0
1.042298594E1,6.244078159E0,-2.298433542E0,3.485957623E0
1.042799219E1,6.895300865E0,-2.106897593E0,4.175487995E0
1.043299688E1,7.354987621E0,-1.991975784E0,5.401319027E0
1.043800312E1,7.776367188E0,-1.838746905E0,6.818686485E0
1.044300938E1,8.312667847E0,-1.647210717E0,8.389283180E0
1.044798281E1,8.772355080E0,-1.493981838E0,1.007480049E1
1.045298750E1,9.078812599E0,-1.225831270E0,1.168370438E1
1.045799375E1,8.887276649E0,-8.427590132E-1,1.313937855E1
1.046300000E1,8.197746277E0,-1.915361285E-1,1.451843929E1
1.046800469E1,7.240066051E0,5.363011956E-1,1.608903503E1
1.047301094E1,6.473921299E0,1.762132406E0,1.781286049E1
1.047798438E1,6.052541733E0,3.600879431E0,1.980483627E1
1.048298906E1,5.899312973E0,5.784391403E0,2.248634148E1
1.048799531E1,6.435614109E0,8.082824707E0,2.555092049E1
1.049300156E1,7.508216381E0,1.011310768E1,2.873042107E1
1.049800781E1,8.848969460E0,1.149216843E1,3.164176941E1
1.050301250E1,1.003649330E1,1.199016190E1,3.394020462E1
1.050798594E1,1.064940929E1,1.172201157E1,3.551079941E1
