
time,ax,ay,az,Latitude,Longitude,Speed (m/s),
0.0530,0.0000,0.0000,0.0000,0.00000000,0.00000000,0.00000000,
0.0770,0.0000,0.0000,0.0000,9.89320918,8.88874329,0.00000000,
0.0790,0.0000,0.0000,0.0000,9.89320918,8.88874329,0.00000000,
0.0790,0.0000,0.0000,0.0000,9.89320918,8.88874329,0.00000000,
0.0800,0.0000,0.0000,0.0000,9.89320918,8.88874329,0.00000000,
0.0800,2.3870,-3.6219,2.6446,9.89320918,8.88874329,0.00000000,
0.0810,2.3870,-3.6219,2.6446,9.89320918,8.88874329,0.00000000,
0.0820,2.3870,-3.6219,2.6446,9.89320918,8.88874329,0.00000000,
0.0900,2.3870,-3.6219,2.6446,9.89320918,8.88874329,0.00000000,
0.0910,2.3870,-3.6219,2.6446,9.89320918,8.88874329,0.00000000,
0.1000,2.2074,-4.0526,2.7676,9.89320918,8.88874329,0.00000000,
0.1010,2.2074,-4.0526,2.7676,9.89320918,8.88874329,0.00000000,
0.1020,2.2074,-4.0526,2.7676,9.89320918,8.88874329,0.00000000,
0.1110,2.2074,-4.0526,2.7676,9.89320918,8.88874329,0.00000000,
0.1120,2.2074,-4.0526,2.7676,9.89320918,8.88874329,0.00000000,
0.1140,2.0207,-4.4915,3.1504,9.89320918,8.88874329,0.00000000,
0.1200,2.0207,-4.4915,3.1504,9.89320918,8.88874329,0.00000000,
0.1220,2.0207,-4.4915,3.1504,9.89320918,8.88874329,0.00000000,
0.1300,2.0207,-4.4915,3.1504,9.89320918,8.88874329,0.00000000,
0.1320,2.0207,-4.4915,3.1504,9.89320918,8.88874329,0.00000000,
0.1340,2.0010,-4.1692,2.0640,9.89320918,8.88874329,0.00000000,
0.1400,2.0010,-4.1692,2.0640,9.89320918,8.88874329,0.00000000,
0.1410,2.0010,-4.1692,2.0640,9.89320918,8.88874329,0.00000000,
0.1500,2.0010,-4.1692,2.0640,9.89320918,8.88874329,0.00000000,
0.1510,2.0010,-4.1692,2.0640,9.89320918,8.88874329,0.00000000,
0.1530,1.9117,-3.4643,-0.2838,9.89320918,8.88874329,0.00000000,
0.1610,1.9117,-3.4643,-0.2838,9.89320918,8.88874329,0.00000000,
0.1640,1.9117,-3.4643,-0.2838,9.89320918,8.88874329,0.00000000,
0.1700,1.9117,-3.4643,-0.2838,9.89320918,8.88874329,0.00000000,
0.1720,1.9117,-3.4643,-0.2838,9.89320918,8.88874329,0.00000000,
0.1730,1.6733,-2.5029,-2.1660,9.89320918,8.88874329,0.00000000,
0.1800,1.6733,-2.5029,-2.1660,9.89320918,8.88874329,0.00000000,
0.1820,1.6733,-2.5029,-2.1660,9.89320918,8.88874329,0.00000000,
0.1900,1.6733,-2.5029,-2.1660,9.89320918,8.88874329,0.00000000,
0.1920,1.6733,-2.5029,-2.1660,9.89320918,8.88874329,0.00000000,
0.1950,1.6259,-2.3303,-2.6336,9.89320918,8.88874329,0.00000000,
0.2000,1.6259,-2.3303,-2.6336,9.89320918,8.88874329,0.00000000,
0.2020,1.6259,-2.3303,-2.6336,9.89320918,8.88874329,0.00000000,
0.2100,1.6259,-2.3303,-2.6336,9.89320918,8.88874329,0.00000000,
0.2130,1.6259,-2.3303,-2.6336,9.89320918,8.88874329,0.00000000,
0.2140,1.6448,-2.4951,-2.2473,9.89320918,8.88874329,0.00000000,
0.2200,1.6448,-2.4951,-2.2473,9.89320918,8.88874329,0.00000000,
0.2210,1.6448,-2.4951,-2.2473,9.89320918,8.88874329,0.00000000,
0.2300,1.6448,-2.4951,-2.2473,9.89320918,8.88874329,0.00000000,
0.2320,1.6448,-2.4951,-2.2473,9.89320918,8.88874329,0.00000000,
0.2330,1.6204,-2.4543,-2.1788,9.89320918,8.88874329,0.00000000,
0.2400,1.6204,-2.4543,-2.1788,9.89320918,8.88874329,0.00000000,
0.2410,1.6204,-2.4543,-2.1788,9.89320918,8.88874329,0.00000000,
0.2500,1.6204,-2.4543,-2.1788,9.89320918,8.88874329,0.00000000,
0.2520,1.6204,-2.4543,-2.1788,9.89320918,8.88874329,0.00000000,
0.2540,1.4798,-1.9178,-2.4939,9.89320918,8.88874329,0.00000000,
0.2600,1.4798,-1.9178,-2.4939,9.89320918,8.88874329,0.00000000,
0.2630,1.4798,-1.9178,-2.4939,9.89320918,8.88874329,0.00000000,
0.2700,1.4798,-1.9178,-2.4939,9.89320918,8.88874329,0.00000000,
0.2720,1.4798,-1.9178,-2.4939,9.89320918,8.88874329,0.00000000,
0.2730,1.2884,-1.5126,-2.8809,9.89320918,8.88874329,0.00000000,
0.2800,1.2884,-1.5126,-2.8809,9.89320918,8.88874329,0.00000000,
0.2820,1.2884,-1.5126,-2.8809,9.89320918,8.88874329,0.00000000,
0.2900,1.2884,-1.5126,-2.8809,9.89320918,8.88874329,0.00000000,
0.2920,1.2884,-1.5126,-2.8809,9.89320918,8.88874329,0.00000000,
0.2930,0.9920,-1.3369,-2.7978,9.89320918,8.88874329,0.00000000,
0.3000,0.9920,-1.3369,-2.7978,9.89320918,8.88874329,0.00000000,
0.3020,0.9920,-1.3369,-2.7978,9.89320918,8.88874329,0.00000000,
0.3100,0.9920,-1.3369,-2.7978,9.89320918,8.88874329,0.00000000,
0.3110,0.9920,-1.3369,-2.7978,9.89320918,8.88874329,0.00000000,
0.3150,0.7671,-1.0792,-2.2845,9.89320918,8.88874329,0.00000000,
0.3200,0.7671,-1.0792,-2.2845,9.89320918,8.88874329,0.00000000,
0.3210,0.7671,-1.0792,-2.2845,9.89320918,8.88874329,0.00000000,
0.3310,0.7671,-1.0792,-2.2845,9.89320918,8.88874329,0.00000000,
0.3340,0.7671,-1.0792,-2.2845,9.89320918,8.88874329,0.00000000,
0.3340,0.5063,-0.6330,-1.7662,9.89320918,8.88874329,0.00000000,
0.3400,0.5063,-0.6330,-1.7662,9.89320918,8.88874329,0.00000000,
0.3410,0.5063,-0.6330,-1.7662,9.89320918,8.88874329,0.00000000,
0.3500,0.5063,-0.6330,-1.7662,9.89320918,8.88874329,0.00000000,
0.3520,0.5063,-0.6330,-1.7662,9.89320918,8.88874329,0.00000000,
0.3530,0.2157,-0.2360,-1.9479,9.89320918,8.88874329,0.00000000,
0.3600,0.2157,-0.2360,-1.9479,9.89320918,8.88874329,0.00000000,
0.3610,0.2157,-0.2360,-1.9479,9.89320918,8.88874329,0.00000000,
0.3700,0.2157,-0.2360,-1.9479,9.89320918,8.88874329,0.00000000,
0.3720,0.2157,-0.2360,-1.9479,9.89320918,8.88874329,0.00000000,
0.3740,-0.2544,0.1519,-2.0060,9.89320918,8.88874329,0.00000000,
0.3800,-0.2544,0.1519,-2.0060,9.89320918,8.88874329,0.00000000,
0.3830,-0.2544,0.1519,-2.0060,9.89320918,8.88874329,0.00000000,
0.3900,-0.2544,0.1519,-2.0060,9.89320918,8.88874329,0.00000000,
0.3920,-0.2544,0.1519,-2.0060,9.89320918,8.88874329,0.00000000,
0.3930,-0.4395,-0.2108,-1.2935,9.89320918,8.88874329,0.00000000,
0.4000,-0.4395,-0.2108,-1.2935,9.89320918,8.88874329,0.00000000,
0.4020,-0.4395,-0.2108,-1.2935,9.89320918,8.88874329,0.00000000,
0.4100,-0.4395,-0.2108,-1.2935,9.89320918,8.88874329,0.00000000,
0.4120,-0.4395,-0.2108,-1.2935,9.89320918,8.88874329,0.00000000,
0.4190,-1.0017,-0.7463,0.4526,9.89320918,8.88874329,0.00000000,
0.4240,-1.0017,-0.7463,0.4526,9.89320918,8.88874329,0.00000000,
0.4250,-1.0017,-0.7463,0.4526,9.89320918,8.88874329,0.00000000,
0.4300,-1.0017,-0.7463,0.4526,9.89320918,8.88874329,0.00000000,
0.4350,-1.0017,-0.7463,0.4526,9.89320918,8.88874329,0.00000000,
0.4360,-1.8208,-0.7858,2.2546,9.89320918,8.88874329,0.00000000,
0.4400,-1.8208,-0.7858,2.2546,9.89320918,8.88874329,0.00000000,
0.4420,-1.8208,-0.7858,2.2546,9.89320918,8.88874329,0.00000000,
0.4530,-1.8208,-0.7858,2.2546,9.89320918,8.88874329,0.00000000,
0.4550,-1.8208,-0.7858,2.2546,9.89320918,8.88874329,0.00000000,
0.4560,-1.9355,-0.3881,2.3482,9.89320918,8.88874329,0.00000000,
0.4860,-1.9355,-0.3881,2.3482,9.89320918,8.88874329,0.00000000,
0.4870,-1.9355,-0.3881,2.3482,9.89320918,8.88874329,0.00000000,
0.4880,-1.9355,-0.3881,2.3482,9.89320918,8.88874329,0.00000000,
0.4890,-1.9355,-0.3881,2.3482,9.89320918,8.88874329,0.00000000,
0.4900,-1.8114,-0.2522,1.3565,9.89320918,8.88874329,0.00000000,
0.4930,-1.8114,-0.2522,1.3565,9.89320918,8.88874329,0.00000000,
0.4940,-1.8114,-0.2522,1.3565,9.89320918,8.88874329,0.00000000,
0.4950,-1.8114,-0.2522,1.3565,9.89320918,8.88874329,0.00000000,
0.4950,-1.8114,-0.2522,1.3565,9.89320918,8.88874329,0.00000000,
0.4960,-1.8443,-0.1162,0.9555,9.89320918,8.88874329,0.00000000,
0.5240,-1.8443,-0.1162,0.9555,9.89320918,8.88874329,0.00000000,
0.5250,-1.8443,-0.1162,0.9555,9.89320142,8.88874744,1.34551299,
0.5260,-1.8443,-0.1162,0.9555,9.89320142,8.88874744,1.34551299,
0.5270,-1.8443,-0.1162,0.9555,9.89320142,8.88874744,1.34551299,
0.5280,-1.9146,-0.3081,1.8038,9.89320142,8.88874744,1.34551299,
0.5290,-1.9146,-0.3081,1.8038,9.89320142,8.88874744,1.34551299,
0.5300,-1.9146,-0.3081,1.8038,9.89320142,8.88874744,1.34551299,
0.5310,-1.9146,-0.3081,1.8038,9.89320142,8.88874744,1.34551299,
0.5320,-1.9146,-0.3081,1.8038,9.89320142,8.88874744,1.34551299,
0.5340,-1.7517,-0.4740,2.8824,9.89320142,8.88874744,1.34551299,
0.5400,-1.7517,-0.4740,2.8824,9.89320142,8.88874744,1.34551299,
0.5420,-1.7517,-0.4740,2.8824,9.89320142,8.88874744,1.34551299,
0.5500,-1.7517,-0.4740,2.8824,9.89320142,8.88874744,1.34551299,
0.5530,-1.7517,-0.4740,2.8824,9.89320142,8.88874744,1.34551299,
0.5550,-1.9705,-0.4399,3.7685,9.89320142,8.88874744,1.34551299,
0.5600,-1.9705,-0.4399,3.7685,9.89320142,8.88874744,1.34551299,
0.5620,-1.9705,-0.4399,3.7685,9.89320142,8.88874744,1.34551299,
0.5700,-1.9705,-0.4399,3.7685,9.89320142,8.88874744,1.34551299,
0.5720,-1.9705,-0.4399,3.7685,9.89320142,8.88874744,1.34551299,
0.5730,-2.2832,-0.0879,4.1342,9.89320142,8.88874744,1.34551299,
0.5800,-2.2832,-0.0879,4.1342,9.89320142,8.88874744,1.34551299,
0.5810,-2.2832,-0.0879,4.1342,9.89320142,8.88874744,1.34551299,
0.5900,-2.2832,-0.0879,4.1342,9.89320142,8.88874744,1.34551299,
0.5920,-2.2832,-0.0879,4.1342,9.89320142,8.88874744,1.34551299,
0.5930,-1.7946,-0.1174,3.8416,9.89320142,8.88874744,1.34551299,
0.6000,-1.7946,-0.1174,3.8416,9.89320142,8.88874744,1.34551299,
0.6030,-1.7946,-0.1174,3.8416,9.89320142,8.88874744,1.34551299,
0.6100,-1.7946,-0.1174,3.8416,9.89320142,8.88874744,1.34551299,
0.6120,-1.7946,-0.1174,3.8416,9.89320142,8.88874744,1.34551299,
0.6140,-0.7601,-0.4471,3.2792,9.89320142,8.88874744,1.34551299,
0.6200,-0.7601,-0.4471,3.2792,9.89320142,8.88874744,1.34551299,
0.6220,-0.7601,-0.4471,3.2792,9.89320142,8.88874744,1.34551299,
0.6300,-0.7601,-0.4471,3.2792,9.89320142,8.88874744,1.34551299,
0.6320,-0.7601,-0.4471,3.2792,9.89320142,8.88874744,1.34551299,
0.6330,0.2320,-0.8612,3.4484,9.89320142,8.88874744,1.34551299,
0.6400,0.2320,-0.8612,3.4484,9.89320142,8.88874744,1.34551299,
0.6420,0.2320,-0.8612,3.4484,9.89320142,8.88874744,1.34551299,
0.6500,0.2320,-0.8612,3.4484,9.89320142,8.88874744,1.34551299,
0.6520,0.2320,-0.8612,3.4484,9.89320142,8.88874744,1.34551299,
0.6540,0.8347,-0.3822,3.5653,9.89320142,8.88874744,1.34551299,
0.6600,0.8347,-0.3822,3.5653,9.89320142,8.88874744,1.34551299,
0.6620,0.8347,-0.3822,3.5653,9.89320142,8.88874744,1.34551299,
0.6720,0.8347,-0.3822,3.5653,9.89320142,8.88874744,1.34551299,
0.6740,0.8347,-0.3822,3.5653,9.89320142,8.88874744,1.34551299,
0.6750,1.7810,0.1937,2.4158,9.89320142,8.88874744,1.34551299,
0.6800,1.7810,0.1937,2.4158,9.89320142,8.88874744,1.34551299,
0.6810,1.7810,0.1937,2.4158,9.89320142,8.88874744,1.34551299,
0.6900,1.7810,0.1937,2.4158,9.89320142,8.88874744,1.34551299,
0.6920,1.7810,0.1937,2.4158,9.89320142,8.88874744,1.34551299,
0.6930,3.6392,-0.2051,0.9436,9.89320142,8.88874744,1.34551299,
0.7000,3.6392,-0.2051,0.9436,9.89320142,8.88874744,1.34551299,
0.7010,3.6392,-0.2051,0.9436,9.89320142,8.88874744,1.34551299,
0.7100,3.6392,-0.2051,0.9436,9.89320142,8.88874744,1.34551299,
0.7120,3.6392,-0.2051,0.9436,9.89320142,8.88874744,1.34551299,
0.7130,4.0409,-0.7364,-1.1118,9.89320142,8.88874744,1.34551299,
0.7190,4.0409,-0.7364,-1.1118,9.89320142,8.88874744,1.34551299,
0.7230,4.0409,-0.7364,-1.1118,9.89320142,8.88874744,1.34551299,
0.7300,4.0409,-0.7364,-1.1118,9.89320142,8.88874744,1.34551299,
0.7320,4.0409,-0.7364,-1.1118,9.89320142,8.88874744,1.34551299,
0.7340,2.7329,-0.0948,-2.9136,9.89320142,8.88874744,1.34551299,
0.7400,2.7329,-0.0948,-2.9136,9.89320142,8.88874744,1.34551299,
0.7420,2.7329,-0.0948,-2.9136,9.89320142,8.88874744,1.34551299,
0.7500,2.7329,-0.0948,-2.9136,9.89320142,8.88874744,1.34551299,
0.7510,2.7329,-0.0948,-2.9136,9.89320142,8.88874744,1.34551299,
0.7530,2.8297,-0.5229,-3.5080,9.89320142,8.88874744,1.34551299,
0.7600,2.8297,-0.5229,-3.5080,9.89320142,8.88874744,1.34551299,
0.7610,2.8297,-0.5229,-3.5080,9.89320142,8.88874744,1.34551299,
0.7700,2.8297,-0.5229,-3.5080,9.89320142,8.88874744,1.34551299,
0.7740,2.8297,-0.5229,-3.5080,9.89320142,8.88874744,1.34551299,
0.7750,3.5956,-1.1136,-3.9574,9.89320142,8.88874744,1.34551299,
0.7800,3.5956,-1.1136,-3.9574,9.89320142,8.88874744,1.34551299,
0.7820,3.5956,-1.1136,-3.9574,9.89320142,8.88874744,1.34551299,
0.7900,3.5956,-1.1136,-3.9574,9.89320142,8.88874744,1.34551299,
0.7920,3.5956,-1.1136,-3.9574,9.89320142,8.88874744,1.34551299,
0.7930,3.3376,-0.8820,-3.7777,9.89320142,8.88874744,1.34551299,
0.8000,3.3376,-0.8820,-3.7777,9.89320142,8.88874744,1.34551299,
0.8010,3.3376,-0.8820,-3.7777,9.89320142,8.88874744,1.34551299,
0.8100,3.3376,-0.8820,-3.7777,9.89320142,8.88874744,1.34551299,
0.8110,3.3376,-0.8820,-3.7777,9.89320142,8.88874744,1.34551299,
0.8130,2.9667,-0.9192,-3.7159,9.89320142,8.88874744,1.34551299,
0.8200,2.9667,-0.9192,-3.7159,9.89320142,8.88874744,1.34551299,
0.8210,2.9667,-0.9192,-3.7159,9.89320142,8.88874744,1.34551299,
0.8300,2.9667,-0.9192,-3.7159,9.89320142,8.88874744,1.34551299,
0.8310,2.9667,-0.9192,-3.7159,9.89320142,8.88874744,1.34551299,
0.8330,2.7873,-0.8318,-3.8511,9.89320142,8.88874744,1.34551299,
0.8410,2.7873,-0.8318,-3.8511,9.89320142,8.88874744,1.34551299,
0.8430,2.7873,-0.8318,-3.8511,9.89320142,8.88874744,1.34551299,
0.8500,2.7873,-0.8318,-3.8511,9.89320142,8.88874744,1.34551299,
0.8520,2.7873,-0.8318,-3.8511,9.89320142,8.88874744,1.34551299,
0.8540,2.8629,-1.4370,-2.7440,9.89320142,8.88874744,1.34551299,
0.8600,2.8629,-1.4370,-2.7440,9.89320142,8.88874744,1.34551299,
0.8620,2.8629,-1.4370,-2.7440,9.89320142,8.88874744,1.34551299,
0.8700,2.8629,-1.4370,-2.7440,9.89320142,8.88874744,1.34551299,
0.8710,2.8629,-1.4370,-2.7440,9.89320142,8.88874744,1.34551299,
0.8730,2.7612,-1.5653,-0.5471,9.89320142,8.88874744,1.34551299,
0.8800,2.7612,-1.5653,-0.5471,9.89320142,8.88874744,1.34551299,
0.8810,2.7612,-1.5653,-0.5471,9.89320142,8.88874744,1.34551299,
0.8900,2.7612,-1.5653,-0.5471,9.89320142,8.88874744,1.34551299,
0.8930,2.7612,-1.5653,-0.5471,9.89320142,8.88874744,1.34551299,
0.8940,2.6903,-1.4708,0.4409,9.89320142,8.88874744,1.34551299,
0.9000,2.6903,-1.4708,0.4409,9.89320142,8.88874744,1.34551299,
0.9010,2.6903,-1.4708,0.4409,9.89320142,8.88874744,1.34551299,
0.9100,2.6903,-1.4708,0.4409,9.89320142,8.88874744,1.34551299,
0.9120,2.6903,-1.4708,0.4409,9.89320142,8.88874744,1.34551299,
0.9140,2.3709,-1.2599,0.8932,9.89320142,8.88874744,1.34551299,
0.9200,2.3709,-1.2599,0.8932,9.89320142,8.88874744,1.34551299,
0.9210,2.3709,-1.2599,0.8932,9.89320142,8.88874744,1.34551299,
0.9300,2.3709,-1.2599,0.8932,9.89320142,8.88874744,1.34551299,
0.9320,2.3709,-1.2599,0.8932,9.89320142,8.88874744,1.34551299,
0.9330,2.0999,-0.3912,1.5567,9.89320142,8.88874744,1.34551299,
0.9390,2.0999,-0.3912,1.5567,9.89320142,8.88874744,1.34551299,
0.9430,2.0999,-0.3912,1.5567,9.89320142,8.88874744,1.34551299,
0.9500,2.0999,-0.3912,1.5567,9.89320142,8.88874744,1.34551299,
0.9520,2.0999,-0.3912,1.5567,9.89320142,8.88874744,1.34551299,
0.9530,1.6758,1.2447,1.1376,9.89320142,8.88874744,1.34551299,
0.9600,1.6758,1.2447,1.1376,9.89320142,8.88874744,1.34551299,
0.9620,1.6758,1.2447,1.1376,9.89320142,8.88874744,1.34551299,
0.9700,1.6758,1.2447,1.1376,9.89320142,8.88874744,1.34551299,
0.9720,1.6758,1.2447,1.1376,9.89320142,8.88874744,1.34551299,
0.9740,1.1200,2.0037,2.0570,9.89320142,8.88874744,1.34551299,
0.9800,1.1200,2.0037,2.0570,9.89320142,8.88874744,1.34551299,
0.9810,1.1200,2.0037,2.0570,9.89320142,8.88874744,1.34551299,
0.9900,1.1200,2.0037,2.0570,9.89320142,8.88874744,1.34551299,
0.9910,1.1200,2.0037,2.0570,9.89320142,8.88874744,1.34551299,
0.9940,-0.3903,1.7395,5.0051,9.89320142,8.88874744,1.34551299,
1.0000,-0.3903,1.7395,5.0051,9.89320142,8.88874744,1.34551299,
1.0020,-0.3903,1.7395,5.0051,9.89320142,8.88874744,1.34551299,
1.0130,-0.3903,1.7395,5.0051,9.89320142,8.88874744,1.34551299,
1.0150,-0.3903,1.7395,5.0051,9.89320142,8.88874744,1.34551299,
1.0150,-1.2826,1.5817,5.4432,9.89320142,8.88874744,1.34551299,
1.0200,-1.2826,1.5817,5.4432,9.89320142,8.88874744,1.34551299,
1.0210,-1.2826,1.5817,5.4432,9.89320142,8.88874744,1.34551299,
1.0300,-1.2826,1.5817,5.4432,9.89320142,8.88874744,1.34551299,
1.0320,-1.2826,1.5817,5.4432,9.89320142,8.88874744,1.34551299,
1.0330,-1.6948,1.3167,3.4158,9.89320142,8.88874744,1.34551299,
1.0400,-1.6948,1.3167,3.4158,9.89320142,8.88874744,1.34551299,
1.0420,-1.6948,1.3167,3.4158,9.89320142,8.88874744,1.34551299,
1.0500,-1.6948,1.3167,3.4158,9.89320142,8.88874744,1.34551299,
1.0520,-1.6948,1.3167,3.4158,9.89320142,8.88874744,1.34551299,
1.0530,-1.7007,0.3849,0.9210,9.89320142,8.88874744,1.34551299,
1.0600,-1.7007,0.3849,0.9210,9.89320142,8.88874744,1.34551299,
1.0630,-1.7007,0.3849,0.9210,9.89320142,8.88874744,1.34551299,
1.0700,-1.7007,0.3849,0.9210,9.89320142,8.88874744,1.34551299,
1.0720,-1.7007,0.3849,0.9210,9.89320142,8.88874744,1.34551299,
1.0730,-2.7610,0.4945,-1.6478,9.89320142,8.88874744,1.34551299,
1.0800,-2.7610,0.4945,-1.6478,9.89320142,8.88874744,1.34551299,
1.0820,-2.7610,0.4945,-1.6478,9.89320142,8.88874744,1.34551299,
1.0900,-2.7610,0.4945,-1.6478,9.89320142,8.88874744,1.34551299,
1.0920,-2.7610,0.4945,-1.6478,9.89320142,8.88874744,1.34551299,
1.0940,-3.3221,0.5169,-2.2953,9.89320142,8.88874744,1.34551299,
1.1000,-3.3221,0.5169,-2.2953,9.89320142,8.88874744,1.34551299,
1.1020,-3.3221,0.5169,-2.2953,9.89320142,8.88874744,1.34551299,
1.1100,-3.3221,0.5169,-2.2953,9.89320142,8.88874744,1.34551299,
1.1130,-3.3221,0.5169,-2.2953,9.89320142,8.88874744,1.34551299,
1.1150,-4.0518,0.1860,-2.4015,9.89320142,8.88874744,1.34551299,
1.1200,-4.0518,0.1860,-2.4015,9.89320142,8.88874744,1.34551299,
1.1210,-4.0518,0.1860,-2.4015,9.89320142,8.88874744,1.34551299,
1.1300,-4.0518,0.1860,-2.4015,9.89320142,8.88874744,1.34551299,
1.1320,-4.0518,0.1860,-2.4015,9.89320142,8.88874744,1.34551299,
1.1340,-3.9612,-0.4571,-2.5121,9.89320142,8.88874744,1.34551299,
1.1400,-3.9612,-0.4571,-2.5121,9.89320142,8.88874744,1.34551299,
1.1410,-3.9612,-0.4571,-2.5121,9.89320142,8.88874744,1.34551299,
1.1500,-3.9612,-0.4571,-2.5121,9.89320142,8.88874744,1.34551299,
1.1520,-3.9612,-0.4571,-2.5121,9.89320142,8.88874744,1.34551299,
1.1530,-3.3947,-1.0601,-2.3190,9.89320142,8.88874744,1.34551299,
1.1600,-3.3947,-1.0601,-2.3190,9.89320142,8.88874744,1.34551299,
1.1620,-3.3947,-1.0601,-2.3190,9.89320142,8.88874744,1.34551299,
1.1700,-3.3947,-1.0601,-2.3190,9.89320142,8.88874744,1.34551299,
1.1720,-3.3947,-1.0601,-2.3190,9.89320142,8.88874744,1.34551299,
1.1730,-3.5541,-0.7486,-2.9977,9.89320142,8.88874744,1.34551299,
1.1820,-3.5541,-0.7486,-2.9977,9.89320142,8.88874744,1.34551299,
1.1840,-3.5541,-0.7486,-2.9977,9.89320142,8.88874744,1.34551299,
1.1900,-3.5541,-0.7486,-2.9977,9.89320142,8.88874744,1.34551299,
1.1920,-3.5541,-0.7486,-2.9977,9.89320142,8.88874744,1.34551299,
1.1940,-4.0177,-0.1990,-3.6764,9.89320142,8.88874744,1.34551299,
1.2000,-4.0177,-0.1990,-3.6764,9.89320142,8.88874744,1.34551299,
1.2040,-4.0177,-0.1990,-3.6764,9.89320142,8.88874744,1.34551299,
1.2100,-4.0177,-0.1990,-3.6764,9.89320142,8.88874744,1.34551299,
1.2120,-4.0177,-0.1990,-3.6764,9.89320142,8.88874744,1.34551299,
1.2160,-3.8107,-0.2355,-3.3315,9.89320142,8.88874744,1.34551299,
1.2200,-3.8107,-0.2355,-3.3315,9.89320142,8.88874744,1.34551299,
1.2220,-3.8107,-0.2355,-3.3315,9.89320142,8.88874744,1.34551299,
1.2300,-3.8107,-0.2355,-3.3315,9.89320142,8.88874744,1.34551299,
1.2330,-3.8107,-0.2355,-3.3315,9.89320142,8.88874744,1.34551299,
1.2340,-3.1623,-0.7122,-3.4652,9.89320142,8.88874744,1.34551299,
50.3020,-3.1623,-0.7122,-3.4652,9.89320142,8.88874744,1.34551299,
50.3030,-3.1623,-0.7122,-3.4652,9.89163958,8.88849626,4.12600183,
50.3180,-3.1623,-0.7122,-3.4652,9.89163958,8.88849626,4.12600183,
50.3190,-3.1623,-0.7122,-3.4652,9.89163958,8.88849626,4.12600183,
50.3210,8.4354,0.2663,5.1174,9.89163958,8.88849626,4.12600183,
50.3230,8.4354,0.2663,5.1174,9.89163958,8.88849626,4.12600183,
50.3240,8.4354,0.2663,5.1174,9.89163958,8.88849626,4.12600183,
50.3440,8.4354,0.2663,5.1174,9.89163958,8.88849626,4.12600183,
50.3450,8.4354,0.2663,5.1174,9.89163958,8.88849626,4.12600183,
50.3460,8.7584,1.3318,0.8285,9.89163958,8.88849626,4.12600183,
50.3470,8.7584,1.3318,0.8285,9.89163958,8.88849626,4.12600183,
50.3470,8.7584,1.3318,0.8285,9.89163958,8.88849626,4.12600183,
50.4030,8.7584,1.3318,0.8285,9.89163958,8.88849626,4.12600183,
50.4050,8.7584,1.3318,0.8285,9.89163958,8.88849626,4.12600183,
50.4060,7.8482,2.4090,-2.1043,9.89163958,8.88849626,4.12600183,
50.4080,7.8482,2.4090,-2.1043,9.89163958,8.88849626,4.12600183,
50.4090,7.8482,2.4090,-2.1043,9.89163958,8.88849626,4.12600183,
50.4100,7.8482,2.4090,-2.1043,9.89163958,8.88849626,4.12600183,
50.4100,7.8482,2.4090,-2.1043,9.89163958,8.88849626,4.12600183,
50.4110,5.7550,2.7945,-2.4041,9.89163958,8.88849626,4.12600183,
50.4120,5.7550,2.7945,-2.4041,9.89163958,8.88849626,4.12600183,
50.4130,5.7550,2.7945,-2.4041,9.89163958,8.88849626,4.12600183,
50.4140,5.7550,2.7945,-2.4041,9.89163958,8.88849626,4.12600183,
50.4150,5.7550,2.7945,-2.4041,9.89163958,8.88849626,4.12600183,
50.4150,3.8239,2.6913,-0.7553,9.89163958,8.88849626,4.12600183,
50.4170,3.8239,2.6913,-0.7553,9.89163958,8.88849626,4.12600183,
50.4180,3.8239,2.6913,-0.7553,9.89163958,8.88849626,4.12600183,
50.4180,3.8239,2.6913,-0.7553,9.89163958,8.88849626,4.12600183,
50.4190,3.8239,2.6913,-0.7553,9.89163958,8.88849626,4.12600183,
50.4200,2.8802,1.6206,0.4928,9.89163958,8.88849626,4.12600183,
50.4210,2.8802,1.6206,0.4928,9.89163958,8.88849626,4.12600183,
50.4220,2.8802,1.6206,0.4928,9.89163958,8.88849626,4.12600183,
50.4330,2.8802,1.6206,0.4928,9.89163958,8.88849626,4.12600183,
50.4340,2.8802,1.6206,0.4928,9.89163958,8.88849626,4.12600183,
50.4340,2.1806,0.7631,-0.9982,9.89163958,8.88849626,4.12600183,
50.5530,2.1806,0.7631,-0.9982,9.89163958,8.88849626,4.12600183,
50.5550,2.1806,0.7631,-0.9982,9.89163958,8.88849626,4.12600183,
50.5560,2.1806,0.7631,-0.9982,9.89163958,8.88849626,4.12600183,
50.5570,2.1806,0.7631,-0.9982,9.89163958,8.88849626,4.12600183,
50.5580,2.1658,0.9763,-4.3844,9.89163958,8.88849626,4.12600183,
50.5600,2.1658,0.9763,-4.3844,9.89163958,8.88849626,4.12600183,
50.5610,2.1658,0.9763,-4.3844,9.89163958,8.88849626,4.12600183,
50.5620,2.1658,0.9763,-4.3844,9.89163958,8.88849626,4.12600183,
50.5630,2.1658,0.9763,-4.3844,9.89163958,8.88849626,4.12600183,
50.5640,2.0171,1.4109,-6.0972,9.89163958,8.88849626,4.12600183,
50.5660,2.0171,1.4109,-6.0972,9.89163958,8.88849626,4.12600183,
50.5670,2.0171,1.4109,-6.0972,9.89163958,8.88849626,4.12600183,
50.5680,2.0171,1.4109,-6.0972,9.89163958,8.88849626,4.12600183,
50.5690,2.0171,1.4109,-6.0972,9.89163958,8.88849626,4.12600183,
50.5700,2.5139,0.7363,-3.5101,9.89163958,8.88849626,4.12600183,
50.5720,2.5139,0.7363,-3.5101,9.89163958,8.88849626,4.12600183,
50.5730,2.5139,0.7363,-3.5101,9.89163958,8.88849626,4.12600183,
50.5740,2.5139,0.7363,-3.5101,9.89163958,8.88849626,4.12600183,
50.5750,2.5139,0.7363,-3.5101,9.89163958,8.88849626,4.12600183,
50.5760,2.2457,0.4259,0.4783,9.89163958,8.88849626,4.12600183,
50.5790,2.2457,0.4259,0.4783,9.89163958,8.88849626,4.12600183,
50.5800,2.2457,0.4259,0.4783,9.89163958,8.88849626,4.12600183,
50.5810,2.2457,0.4259,0.4783,9.89163958,8.88849626,4.12600183,
50.5820,2.2457,0.4259,0.4783,9.89163958,8.88849626,4.12600183,
50.5830,1.2789,0.3972,5.4063,9.89163958,8.88849626,4.12600183,
50.5860,1.2789,0.3972,5.4063,9.89163958,8.88849626,4.12600183,
50.5860,1.2789,0.3972,5.4063,9.89163958,8.88849626,4.12600183,
50.5870,1.2789,0.3972,5.4063,9.89163958,8.88849626,4.12600183,
50.5880,1.2789,0.3972,5.4063,9.89163958,8.88849626,4.12600183,
50.5890,0.1658,1.0068,5.7372,9.89163958,8.88849626,4.12600183,
50.5910,0.1658,1.0068,5.7372,9.89163958,8.88849626,4.12600183,
50.5910,0.1658,1.0068,5.7372,9.89163958,8.88849626,4.12600183,
50.5920,0.1658,1.0068,5.7372,9.89163958,8.88849626,4.12600183,
50.5920,0.1658,1.0068,5.7372,9.89163958,8.88849626,4.12600183,
50.5930,-1.3930,3.3793,4.6203,9.89163958,8.88849626,4.12600183,
50.5950,-1.3930,3.3793,4.6203,9.89163958,8.88849626,4.12600183,
50.5970,-1.3930,3.3793,4.6203,9.89163958,8.88849626,4.12600183,
50.5980,-1.3930,3.3793,4.6203,9.89163958,8.88849626,4.12600183,
50.5990,-1.3930,3.3793,4.6203,9.89163958,8.88849626,4.12600183,
50.6000,-2.2844,4.2461,4.7205,9.89163958,8.88849626,4.12600183,
50.6010,-2.2844,4.2461,4.7205,9.89163958,8.88849626,4.12600183,
50.6020,-2.2844,4.2461,4.7205,9.89163958,8.88849626,4.12600183,
50.6520,-2.2844,4.2461,4.7205,9.89163958,8.88849626,4.12600183,
50.6540,-2.2844,4.2461,4.7205,9.89163958,8.88849626,4.12600183,
50.6550,-2.2451,2.8377,6.3924,9.89163958,8.88849626,4.12600183,
50.6570,-2.2451,2.8377,6.3924,9.89163958,8.88849626,4.12600183,
50.6580,-2.2451,2.8377,6.3924,9.89163958,8.88849626,4.12600183,
50.6590,-2.2451,2.8377,6.3924,9.89163958,8.88849626,4.12600183,
50.6600,-2.2451,2.8377,6.3924,9.89163958,8.88849626,4.12600183,
50.6600,-1.5950,2.0416,5.5376,9.89163958,8.88849626,4.12600183,
50.6630,-1.5950,2.0416,5.5376,9.89163958,8.88849626,4.12600183,
50.6640,-1.5950,2.0416,5.5376,9.89163958,8.88849626,4.12600183,
50.6650,-1.5950,2.0416,5.5376,9.89163958,8.88849626,4.12600183,
50.6660,-1.5950,2.0416,5.5376,9.89163958,8.88849626,4.12600183,
50.6660,-1.5678,1.7032,2.8125,9.89163958,8.88849626,4.12600183,
50.6670,-1.5678,1.7032,2.8125,9.89163958,8.88849626,4.12600183,
50.6680,-1.5678,1.7032,2.8125,9.89163958,8.88849626,4.12600183,
50.6930,-1.5678,1.7032,2.8125,9.89163958,8.88849626,4.12600183,
50.6940,-1.5678,1.7032,2.8125,9.89163958,8.88849626,4.12600183,
50.6950,-2.6410,1.3359,0.4541,9.89163958,8.88849626,4.12600183,
50.6960,-2.6410,1.3359,0.4541,9.89163958,8.88849626,4.12600183,
50.6970,-2.6410,1.3359,0.4541,9.89163958,8.88849626,4.12600183,
50.6980,-2.6410,1.3359,0.4541,9.89163958,8.88849626,4.12600183,
50.6990,-2.6410,1.3359,0.4541,9.89163958,8.88849626,4.12600183,
50.7000,-3.7668,-0.0983,-1.9053,9.89163958,8.88849626,4.12600183,
50.7010,-3.7668,-0.0983,-1.9053,9.89163958,8.88849626,4.12600183,
50.7030,-3.7668,-0.0983,-1.9053,9.89163958,8.88849626,4.12600183,
50.7260,-3.7668,-0.0983,-1.9053,9.89163958,8.88849626,4.12600183,
50.7270,-3.7668,-0.0983,-1.9053,9.89160592,8.88848951,3.45723081,
50.7290,-4.9189,-2.3577,-2.3705,9.89160592,8.88848951,3.45723081,
50.7300,-4.9189,-2.3577,-2.3705,9.89160592,8.88848951,3.45723081,
50.7310,-4.9189,-2.3577,-2.3705,9.89160592,8.88848951,3.45723081,
50.7310,-4.9189,-2.3577,-2.3705,9.89160592,8.88848951,3.45723081,
50.7320,-4.9189,-2.3577,-2.3705,9.89160592,8.88848951,3.45723081,
50.7340,-5.7710,-3.2341,-2.1179,9.89160592,8.88848951,3.45723081,
50.7400,-5.7710,-3.2341,-2.1179,9.89160592,8.88848951,3.45723081,
50.7420,-5.7710,-3.2341,-2.1179,9.89160592,8.88848951,3.45723081,
50.7500,-5.7710,-3.2341,-2.1179,9.89160592,8.88848951,3.45723081,
50.7520,-5.7710,-3.2341,-2.1179,9.89160592,8.88848951,3.45723081,
50.7530,-6.3949,-3.3125,-3.4778,9.89160592,8.88848951,3.45723081,
50.7600,-6.3949,-3.3125,-3.4778,9.89160592,8.88848951,3.45723081,
50.7620,-6.3949,-3.3125,-3.4778,9.89160592,8.88848951,3.45723081,
50.7700,-6.3949,-3.3125,-3.4778,9.89160592,8.88848951,3.45723081,
50.7720,-6.3949,-3.3125,-3.4778,9.89160592,8.88848951,3.45723081,
50.7750,-7.3515,-2.7823,-5.9527,9.89160592,8.88848951,3.45723081,
50.7800,-7.3515,-2.7823,-5.9527,9.89160592,8.88848951,3.45723081,
50.7830,-7.3515,-2.7823,-5.9527,9.89160592,8.88848951,3.45723081,
50.7900,-7.3515,-2.7823,-5.9527,9.89160592,8.88848951,3.45723081,
50.7920,-7.3515,-2.7823,-5.9527,9.89160592,8.88848951,3.45723081,
50.7930,-7.2421,-2.6593,-8.1292,9.89160592,8.88848951,3.45723081,
50.8000,-7.2421,-2.6593,-8.1292,9.89160592,8.88848951,3.45723081,
50.8020,-7.2421,-2.6593,-8.1292,9.89160592,8.88848951,3.45723081,
50.8100,-7.2421,-2.6593,-8.1292,9.89160592,8.88848951,3.45723081,
50.8120,-7.2421,-2.6593,-8.1292,9.89160592,8.88848951,3.45723081,
50.8130,-5.6832,-2.6783,-8.3347,9.89160592,8.88848951,3.45723081,
50.8200,-5.6832,-2.6783,-8.3347,9.89160592,8.88848951,3.45723081,
50.8220,-5.6832,-2.6783,-8.3347,9.89160592,8.88848951,3.45723081,
50.8300,-5.6832,-2.6783,-8.3347,9.89160592,8.88848951,3.45723081,
50.8320,-5.6832,-2.6783,-8.3347,9.89160592,8.88848951,3.45723081,
50.8340,-3.8460,-1.1251,-8.2213,9.89160592,8.88848951,3.45723081,
50.8400,-3.8460,-1.1251,-8.2213,9.89160592,8.88848951,3.45723081,
50.8420,-3.8460,-1.1251,-8.2213,9.89160592,8.88848951,3.45723081,
50.8500,-3.8460,-1.1251,-8.2213,9.89160592,8.88848951,3.45723081,
50.8530,-3.8460,-1.1251,-8.2213,9.89160592,8.88848951,3.45723081,
50.8540,-4.1088,0.2426,-7.8276,9.89160592,8.88848951,3.45723081,
50.8600,-4.1088,0.2426,-7.8276,9.89160592,8.88848951,3.45723081,
50.8610,-4.1088,0.2426,-7.8276,9.89160592,8.88848951,3.45723081,
50.8700,-4.1088,0.2426,-7.8276,9.89160592,8.88848951,3.45723081,
50.8720,-4.1088,0.2426,-7.8276,9.89160592,8.88848951,3.45723081,
50.8730,-4.6620,0.7549,-4.0296,9.89160592,8.88848951,3.45723081,
50.8800,-4.6620,0.7549,-4.0296,9.89160592,8.88848951,3.45723081,
50.8820,-4.6620,0.7549,-4.0296,9.89160592,8.88848951,3.45723081,
50.8900,-4.6620,0.7549,-4.0296,9.89160592,8.88848951,3.45723081,
50.8920,-4.6620,0.7549,-4.0296,9.89160592,8.88848951,3.45723081,
50.8940,-4.2284,-1.4660,8.0370,9.89160592,8.88848951,3.45723081,
50.9000,-4.2284,-1.4660,8.0370,9.89160592,8.88848951,3.45723081,
50.9020,-4.2284,-1.4660,8.0370,9.89160592,8.88848951,3.45723081,
50.9100,-4.2284,-1.4660,8.0370,9.89160592,8.88848951,3.45723081,
50.9110,-4.2284,-1.4660,8.0370,9.89160592,8.88848951,3.45723081,
50.9130,-1.0385,-3.4063,17.4002,9.89160592,8.88848951,3.45723081,
50.9200,-1.0385,-3.4063,17.4002,9.89160592,8.88848951,3.45723081,
50.9210,-1.0385,-3.4063,17.4002,9.89160592,8.88848951,3.45723081,
50.9310,-1.0385,-3.4063,17.4002,9.89160592,8.88848951,3.45723081,
50.9320,-1.0385,-3.4063,17.4002,9.89160592,8.88848951,3.45723081,
50.9350,1.7388,-0.1413,10.3558,9.89160592,8.88848951,3.45723081,
50.9400,1.7388,-0.1413,10.3558,9.89160592,8.88848951,3.45723081,
50.9420,1.7388,-0.1413,10.3558,9.89160592,8.88848951,3.45723081,
50.9500,1.7388,-0.1413,10.3558,9.89160592,8.88848951,3.45723081,
50.9530,1.7388,-0.1413,10.3558,9.89160592,8.88848951,3.45723081,
50.9540,3.2674,5.1458,-1.4709,9.89160592,8.88848951,3.45723081,
50.9600,3.2674,5.1458,-1.4709,9.89160592,8.88848951,3.45723081,
50.9620,3.2674,5.1458,-1.4709,9.89160592,8.88848951,3.45723081,
50.9700,3.2674,5.1458,-1.4709,9.89160592,8.88848951,3.45723081,
50.9740,3.2674,5.1458,-1.4709,9.89160592,8.88848951,3.45723081,
50.9750,2.7061,5.8903,-5.3532,9.89160592,8.88848951,3.45723081,
50.9800,2.7061,5.8903,-5.3532,9.89160592,8.88848951,3.45723081,
50.9820,2.7061,5.8903,-5.3532,9.89160592,8.88848951,3.45723081,
50.9900,2.7061,5.8903,-5.3532,9.89160592,8.88848951,3.45723081,
50.9930,2.7061,5.8903,-5.3532,9.89160592,8.88848951,3.45723081,
50.9940,0.7453,3.3301,-0.3632,9.89160592,8.88848951,3.45723081,
51.0000,0.7453,3.3301,-0.3632,9.89160592,8.88848951,3.45723081,
51.0020,0.7453,3.3301,-0.3632,9.89160592,8.88848951,3.45723081,
51.0100,0.7453,3.3301,-0.3632,9.89160592,8.88848951,3.45723081,
51.0120,0.7453,3.3301,-0.3632,9.89160592,8.88848951,3.45723081,
51.0140,0.3849,-1.0755,7.9520,9.89160592,8.88848951,3.45723081,
51.0210,0.3849,-1.0755,7.9520,9.89160592,8.88848951,3.45723081,
51.0230,0.3849,-1.0755,7.9520,9.89160592,8.88848951,3.45723081,
51.0300,0.3849,-1.0755,7.9520,9.89160592,8.88848951,3.45723081,
51.0320,0.3849,-1.0755,7.9520,9.89160592,8.88848951,3.45723081,
51.0330,1.6697,-1.3764,5.8701,9.89160592,8.88848951,3.45723081,
51.0410,1.6697,-1.3764,5.8701,9.89160592,8.88848951,3.45723081,
51.0430,1.6697,-1.3764,5.8701,9.89160592,8.88848951,3.45723081,
51.0500,1.6697,-1.3764,5.8701,9.89160592,8.88848951,3.45723081,
51.0520,1.6697,-1.3764,5.8701,9.89160592,8.88848951,3.45723081,
51.0550,2.0859,1.0557,-1.7450,9.89160592,8.88848951,3.45723081,
51.0600,2.0859,1.0557,-1.7450,9.89160592,8.88848951,3.45723081,
51.0610,2.0859,1.0557,-1.7450,9.89160592,8.88848951,3.45723081,
51.0700,2.0859,1.0557,-1.7450,9.89160592,8.88848951,3.45723081,
51.0720,2.0859,1.0557,-1.7450,9.89160592,8.88848951,3.45723081,
51.0740,2.0907,1.5259,-6.4972,9.89160592,8.88848951,3.45723081,
51.0800,2.0907,1.5259,-6.4972,9.89160592,8.88848951,3.45723081,
51.0810,2.0907,1.5259,-6.4972,9.89160592,8.88848951,3.45723081,
51.0900,2.0907,1.5259,-6.4972,9.89160592,8.88848951,3.45723081,
51.0920,2.0907,1.5259,-6.4972,9.89160592,8.88848951,3.45723081,
51.0940,2.8460,0.3014,-3.1960,9.89160592,8.88848951,3.45723081,
51.1000,2.8460,0.3014,-3.1960,9.89160592,8.88848951,3.45723081,
51.1010,2.8460,0.3014,-3.1960,9.89160592,8.88848951,3.45723081,
51.1100,2.8460,0.3014,-3.1960,9.89160592,8.88848951,3.45723081,
51.1120,2.8460,0.3014,-3.1960,9.89160592,8.88848951,3.45723081,
51.1130,4.6512,-2.1485,0.6423,9.89160592,8.88848951,3.45723081,
51.1220,4.6512,-2.1485,0.6423,9.89160592,8.88848951,3.45723081,
51.1230,4.6512,-2.1485,0.6423,9.89160592,8.88848951,3.45723081,
51.1300,4.6512,-2.1485,0.6423,9.89160592,8.88848951,3.45723081,
51.1320,4.6512,-2.1485,0.6423,9.89160592,8.88848951,3.45723081,
51.1340,4.5858,-3.2929,1.4019,9.89160592,8.88848951,3.45723081,
51.1400,4.5858,-3.2929,1.4019,9.89160592,8.88848951,3.45723081,
51.1420,4.5858,-3.2929,1.4019,9.89160592,8.88848951,3.45723081,
51.1500,4.5858,-3.2929,1.4019,9.89160592,8.88848951,3.45723081,
51.1510,4.5858,-3.2929,1.4019,9.89160592,8.88848951,3.45723081,
51.1530,2.7188,-1.7612,-2.3398,9.89160592,8.88848951,3.45723081,
51.1600,2.7188,-1.7612,-2.3398,9.89160592,8.88848951,3.45723081,
51.1620,2.7188,-1.7612,-2.3398,9.89160592,8.88848951,3.45723081,
51.1700,2.7188,-1.7612,-2.3398,9.89160592,8.88848951,3.45723081,
51.1730,2.7188,-1.7612,-2.3398,9.89160592,8.88848951,3.45723081,
51.1750,1.9860,-0.6644,-6.3985,9.89160592,8.88848951,3.45723081,
51.1800,1.9860,-0.6644,-6.3985,9.89160592,8.88848951,3.45723081,
51.1810,1.9860,-0.6644,-6.3985,9.89160592,8.88848951,3.45723081,
51.1900,1.9860,-0.6644,-6.3985,9.89160592,8.88848951,3.45723081,
51.1920,1.9860,-0.6644,-6.3985,9.89160592,8.88848951,3.45723081,
51.1930,2.2226,-0.4561,-6.0700,9.89160592,8.88848951,3.45723081,
51.2000,2.2226,-0.4561,-6.0700,9.89160592,8.88848951,3.45723081,
51.2010,2.2226,-0.4561,-6.0700,9.89160592,8.88848951,3.45723081,
51.2100,2.2226,-0.4561,-6.0700,9.89160592,8.88848951,3.45723081,
51.2110,2.2226,-0.4561,-6.0700,9.89160592,8.88848951,3.45723081,
51.2130,3.5228,-2.0338,-3.3438,9.89160592,8.88848951,3.45723081,
51.2200,3.5228,-2.0338,-3.3438,9.89160592,8.88848951,3.45723081,
51.2210,3.5228,-2.0338,-3.3438,9.89160592,8.88848951,3.45723081,
51.2300,3.5228,-2.0338,-3.3438,9.89160592,8.88848951,3.45723081,
51.2320,3.5228,-2.0338,-3.3438,9.89160592,8.88848951,3.45723081,
51.2330,4.5149,-2.6030,-2.6611,9.89160592,8.88848951,3.45723081,
51.2450,4.5149,-2.6030,-2.6611,9.89160592,8.88848951,3.45723081,
51.2470,4.5149,-2.6030,-2.6611,9.89160592,8.88848951,3.45723081,
51.2500,4.5149,-2.6030,-2.6611,9.89160592,8.88848951,3.45723081,
51.2520,4.5149,-2.6030,-2.6611,9.89160592,8.88848951,3.45723081,
51.2540,4.5059,-0.9922,-3.3160,9.89160592,8.88848951,3.45723081,
51.2600,4.5059,-0.9922,-3.3160,9.89160592,8.88848951,3.45723081,
51.2630,4.5059,-0.9922,-3.3160,9.89160592,8.88848951,3.45723081,
51.2700,4.5059,-0.9922,-3.3160,9.89160592,8.88848951,3.45723081,
51.2720,4.5059,-0.9922,-3.3160,9.89160592,8.88848951,3.45723081,
51.2750,3.6414,1.6907,-2.9978,9.89160592,8.88848951,3.45723081,
51.2800,3.6414,1.6907,-2.9978,9.89160592,8.88848951,3.45723081,
51.2820,3.6414,1.6907,-2.9978,9.89160592,8.88848951,3.45723081,
51.2900,3.6414,1.6907,-2.9978,9.89160592,8.88848951,3.45723081,
51.2920,3.6414,1.6907,-2.9978,9.89160592,8.88848951,3.45723081,
51.2940,3.9791,4.2438,-1.7859,9.89160592,8.88848951,3.45723081,
51.3000,3.9791,4.2438,-1.7859,9.89160592,8.88848951,3.45723081,
51.3020,3.9791,4.2438,-1.7859,9.89160592,8.88848951,3.45723081,
51.3100,3.9791,4.2438,-1.7859,9.89160592,8.88848951,3.45723081,
51.3130,3.9791,4.2438,-1.7859,9.89160592,8.88848951,3.45723081,
51.3140,5.5343,5.0171,-0.5217,9.89160592,8.88848951,3.45723081,
51.3200,5.5343,5.0171,-0.5217,9.89160592,8.88848951,3.45723081,
51.3220,5.5343,5.0171,-0.5217,9.89160592,8.88848951,3.45723081,
51.3300,5.5343,5.0171,-0.5217,9.89160592,8.88848951,3.45723081,
51.3320,5.5343,5.0171,-0.5217,9.89160592,8.88848951,3.45723081,
51.3330,5.8623,4.9029,0.6302,9.89160592,8.88848951,3.45723081,
51.3400,5.8623,4.9029,0.6302,9.89160592,8.88848951,3.45723081,
51.3430,5.8623,4.9029,0.6302,9.89160592,8.88848951,3.45723081,
51.3500,5.8623,4.9029,0.6302,9.89160592,8.88848951,3.45723081,
51.3520,5.8623,4.9029,0.6302,9.89160592,8.88848951,3.45723081,
51.3530,4.3947,4.1808,2.3655,9.89160592,8.88848951,3.45723081,
51.3600,4.3947,4.1808,2.3655,9.89160592,8.88848951,3.45723081,
51.3630,4.3947,4.1808,2.3655,9.89160592,8.88848951,3.45723081,
51.3700,4.3947,4.1808,2.3655,9.89160592,8.88848951,3.45723081,
51.3720,4.3947,4.1808,2.3655,9.89160592,8.88848951,3.45723081,
51.3740,2.4451,2.2696,3.1530,9.89160592,8.88848951,3.45723081,
51.3800,2.4451,2.2696,3.1530,9.89160592,8.88848951,3.45723081,
51.3820,2.4451,2.2696,3.1530,9.89160592,8.88848951,3.45723081,
51.3900,2.4451,2.2696,3.1530,9.89160592,8.88848951,3.45723081,
51.3910,2.4451,2.2696,3.1530,9.89160592,8.88848951,3.45723081,
51.3940,0.3818,0.0673,2.3794,9.89160592,8.88848951,3.45723081,
51.4000,0.3818,0.0673,2.3794,9.89160592,8.88848951,3.45723081,
51.4020,0.3818,0.0673,2.3794,9.89160592,8.88848951,3.45723081,
51.4120,0.3818,0.0673,2.3794,9.89160592,8.88848951,3.45723081,
51.4140,0.3818,0.0673,2.3794,9.89160592,8.88848951,3.45723081,
51.4150,-2.4534,-1.3599,0.7529,9.89160592,8.88848951,3.45723081,
51.4200,-2.4534,-1.3599,0.7529,9.89160592,8.88848951,3.45723081,
51.4210,-2.4534,-1.3599,0.7529,9.89160592,8.88848951,3.45723081,
51.4300,-2.4534,-1.3599,0.7529,9.89160592,8.88848951,3.45723081,
51.4320,-2.4534,-1.3599,0.7529,9.89160592,8.88848951,3.45723081,
51.4340,-5.0240,-2.2609,0.0386,9.89160592,8.88848951,3.45723081,
51.4400,-5.0240,-2.2609,0.0386,9.89160592,8.88848951,3.45723081,
51.4420,-5.0240,-2.2609,0.0386,9.89160592,8.88848951,3.45723081,
51.4910,-5.0240,-2.2609,0.0386,9.89160592,8.88848951,3.45723081,
51.4930,-5.0240,-2.2609,0.0386,9.89160592,8.88848951,3.45723081,
51.4930,-6.3859,-2.6231,0.0985,9.89160592,8.88848951,3.45723081,
51.4940,-6.3859,-2.6231,0.0985,9.89160592,8.88848951,3.45723081,
51.4950,-6.3859,-2.6231,0.0985,9.89160592,8.88848951,3.45723081,
51.4950,-6.3859,-2.6231,0.0985,9.89160592,8.88848951,3.45723081,
51.4960,-6.3859,-2.6231,0.0985,9.89160592,8.88848951,3.45723081,
51.4960,-7.6808,-2.4872,-0.6833,9.89160592,8.88848951,3.45723081,
51.4970,-7.6808,-2.4872,-0.6833,9.89160592,8.88848951,3.45723081,
51.4980,-7.6808,-2.4872,-0.6833,9.89160592,8.88848951,3.45723081,
51.4980,-7.6808,-2.4872,-0.6833,9.89160592,8.88848951,3.45723081,
51.4980,-7.6808,-2.4872,-0.6833,9.89160592,8.88848951,3.45723081,
51.4990,-8.8240,-1.9195,-2.2299,9.89160592,8.88848951,3.45723081,
51.5000,-8.8240,-1.9195,-2.2299,9.89160592,8.88848951,3.45723081,
51.5200,-8.8240,-1.9195,-2.2299,9.89160592,8.88848951,3.45723081,
51.5220,-8.8240,-1.9195,-2.2299,9.89160592,8.88848951,3.45723081,
51.5230,-8.8240,-1.9195,-2.2299,9.89160592,8.88848951,3.45723081,
51.5240,-8.7787,-2.5299,-3.3925,9.89160592,8.88848951,3.45723081,
51.5250,-8.7787,-2.5299,-3.3925,9.89160592,8.88848951,3.45723081,
51.5260,-8.7787,-2.5299,-3.3925,9.89160592,8.88848951,3.45723081,
51.5480,-8.7787,-2.5299,-3.3925,9.89160592,8.88848951,3.45723081,
51.5500,-8.7787,-2.5299,-3.3925,9.89160592,8.88848951,3.45723081,
51.5500,-8.1887,-2.9403,-4.0789,9.89160592,8.88848951,3.45723081,
51.5520,-8.1887,-2.9403,-4.0789,9.89160592,8.88848951,3.45723081,
51.5530,-8.1887,-2.9403,-4.0789,9.89160592,8.88848951,3.45723081,
51.5540,-8.1887,-2.9403,-4.0789,9.89160592,8.88848951,3.45723081,
51.5550,-8.1887,-2.9403,-4.0789,9.89160592,8.88848951,3.45723081,
51.5560,-8.1172,-2.2202,-3.9109,9.89160592,8.88848951,3.45723081,
51.5740,-8.1172,-2.2202,-3.9109,9.89160592,8.88848951,3.45723081,
51.5750,-8.1172,-2.2202,-3.9109,9.89158033,8.88847655,3.06569648,
51.5760,-8.1172,-2.2202,-3.9109,9.89158033,8.88847655,3.06569648,
51.5760,-8.1172,-2.2202,-3.9109,9.89158033,8.88847655,3.06569648,
51.5760,-8.3228,-1.2658,-3.4014,9.89158033,8.88847655,3.06569648,
51.5800,-8.3228,-1.2658,-3.4014,9.89158033,8.88847655,3.06569648,
51.5820,-8.3228,-1.2658,-3.4014,9.89158033,8.88847655,3.06569648,
51.5900,-8.3228,-1.2658,-3.4014,9.89158033,8.88847655,3.06569648,
51.5910,-8.3228,-1.2658,-3.4014,9.89158033,8.88847655,3.06569648,
51.5930,-7.1634,-0.6940,-0.8290,9.89158033,8.88847655,3.06569648,
51.6000,-7.1634,-0.6940,-0.8290,9.89158033,8.88847655,3.06569648,
51.6020,-7.1634,-0.6940,-0.8290,9.89158033,8.88847655,3.06569648,
51.6100,-7.1634,-0.6940,-0.8290,9.89158033,8.88847655,3.06569648,
51.6120,-7.1634,-0.6940,-0.8290,9.89158033,8.88847655,3.06569648,
51.6150,-4.3975,0.1135,2.9253,9.89158033,8.88847655,3.06569648,
51.6200,-4.3975,0.1135,2.9253,9.89158033,8.88847655,3.06569648,
51.6210,-4.3975,0.1135,2.9253,9.89158033,8.88847655,3.06569648,
51.6300,-4.3975,0.1135,2.9253,9.89158033,8.88847655,3.06569648,
51.6350,-4.3975,0.1135,2.9253,9.89158033,8.88847655,3.06569648,
51.6360,-0.3785,2.1689,3.6057,9.89158033,8.88847655,3.06569648,
51.6400,-0.3785,2.1689,3.6057,9.89158033,8.88847655,3.06569648,
51.6410,-0.3785,2.1689,3.6057,9.89158033,8.88847655,3.06569648,
51.6500,-0.3785,2.1689,3.6057,9.89158033,8.88847655,3.06569648,
51.6520,-0.3785,2.1689,3.6057,9.89158033,8.88847655,3.06569648,
51.6530,1.4209,3.6695,1.8149,9.89158033,8.88847655,3.06569648,
51.6600,1.4209,3.6695,1.8149,9.89158033,8.88847655,3.06569648,
51.6610,1.4209,3.6695,1.8149,9.89158033,8.88847655,3.06569648,
51.6700,1.4209,3.6695,1.8149,9.89158033,8.88847655,3.06569648,
51.6720,1.4209,3.6695,1.8149,9.89158033,8.88847655,3.06569648,
51.6730,-0.1043,2.3014,4.9791,9.89158033,8.88847655,3.06569648,
51.6790,-0.1043,2.3014,4.9791,9.89158033,8.88847655,3.06569648,
51.6820,-0.1043,2.3014,4.9791,9.89158033,8.88847655,3.06569648,
51.6900,-0.1043,2.3014,4.9791,9.89158033,8.88847655,3.06569648,
51.6910,-0.1043,2.3014,4.9791,9.89158033,8.88847655,3.06569648,
51.6930,-0.9229,-1.6489,9.3621,9.89158033,8.88847655,3.06569648,
51.7000,-0.9229,-1.6489,9.3621,9.89158033,8.88847655,3.06569648,
51.7020,-0.9229,-1.6489,9.3621,9.89158033,8.88847655,3.06569648,
51.7100,-0.9229,-1.6489,9.3621,9.89158033,8.88847655,3.06569648,
51.7140,-0.9229,-1.6489,9.3621,9.89158033,8.88847655,3.06569648,
51.7160,1.2240,-3.0399,9.0863,9.89158033,8.88847655,3.06569648,
51.7200,1.2240,-3.0399,9.0863,9.89158033,8.88847655,3.06569648,
51.7210,1.2240,-3.0399,9.0863,9.89158033,8.88847655,3.06569648,
51.7300,1.2240,-3.0399,9.0863,9.89158033,8.88847655,3.06569648,
51.7310,1.2240,-3.0399,9.0863,9.89158033,8.88847655,3.06569648,
51.7340,3.0984,-1.4325,2.9896,9.89158033,8.88847655,3.06569648,
51.7400,3.0984,-1.4325,2.9896,9.89158033,8.88847655,3.06569648,
51.7410,3.0984,-1.4325,2.9896,9.89158033,8.88847655,3.06569648,
51.7520,3.0984,-1.4325,2.9896,9.89158033,8.88847655,3.06569648,
51.7540,3.0984,-1.4325,2.9896,9.89158033,8.88847655,3.06569648,
51.7550,3.8154,0.1813,-4.8080,9.89158033,8.88847655,3.06569648,
51.7600,3.8154,0.1813,-4.8080,9.89158033,8.88847655,3.06569648,
51.7620,3.8154,0.1813,-4.8080,9.89158033,8.88847655,3.06569648,
51.7700,3.8154,0.1813,-4.8080,9.89158033,8.88847655,3.06569648,
51.7730,3.8154,0.1813,-4.8080,9.89158033,8.88847655,3.06569648,
51.7740,3.9782,0.0092,-6.2438,9.89158033,8.88847655,3.06569648,
51.7800,3.9782,0.0092,-6.2438,9.89158033,8.88847655,3.06569648,
51.7820,3.9782,0.0092,-6.2438,9.89158033,8.88847655,3.06569648,
51.7900,3.9782,0.0092,-6.2438,9.89158033,8.88847655,3.06569648,
51.7920,3.9782,0.0092,-6.2438,9.89158033,8.88847655,3.06569648,
51.7930,4.9963,-1.8205,-2.2907,9.89158033,8.88847655,3.06569648,
51.8000,4.9963,-1.8205,-2.2907,9.89158033,8.88847655,3.06569648,
51.8020,4.9963,-1.8205,-2.2907,9.89158033,8.88847655,3.06569648,
51.8100,4.9963,-1.8205,-2.2907,9.89158033,8.88847655,3.06569648,
51.8110,4.9963,-1.8205,-2.2907,9.89158033,8.88847655,3.06569648,
51.8130,5.3336,-2.9889,0.5623,9.89158033,8.88847655,3.06569648,
51.8200,5.3336,-2.9889,0.5623,9.89158033,8.88847655,3.06569648,
51.8220,5.3336,-2.9889,0.5623,9.89158033,8.88847655,3.06569648,
51.8300,5.3336,-2.9889,0.5623,9.89158033,8.88847655,3.06569648,
51.8320,5.3336,-2.9889,0.5623,9.89158033,8.88847655,3.06569648,
51.8330,5.6218,-2.5672,0.0286,9.89158033,8.88847655,3.06569648,
51.8400,5.6218,-2.5672,0.0286,9.89158033,8.88847655,3.06569648,
51.8420,5.6218,-2.5672,0.0286,9.89158033,8.88847655,3.06569648,
51.8500,5.6218,-2.5672,0.0286,9.89158033,8.88847655,3.06569648,
51.8540,5.6218,-2.5672,0.0286,9.89158033,8.88847655,3.06569648,
51.8560,6.4120,-2.2275,-2.2727,9.89158033,8.88847655,3.06569648,
51.8600,6.4120,-2.2275,-2.2727,9.89158033,8.88847655,3.06569648,
51.8620,6.4120,-2.2275,-2.2727,9.89158033,8.88847655,3.06569648,
51.8700,6.4120,-2.2275,-2.2727,9.89158033,8.88847655,3.06569648,
51.8730,6.4120,-2.2275,-2.2727,9.89158033,8.88847655,3.06569648,
51.8740,7.3805,-2.0240,-3.3316,9.89158033,8.88847655,3.06569648,
51.8800,7.3805,-2.0240,-3.3316,9.89158033,8.88847655,3.06569648,
51.8810,7.3805,-2.0240,-3.3316,9.89158033,8.88847655,3.06569648,
51.8900,7.3805,-2.0240,-3.3316,9.89158033,8.88847655,3.06569648,
51.8920,7.3805,-2.0240,-3.3316,9.89158033,8.88847655,3.06569648,
51.8930,8.0628,-1.6084,-2.2688,9.89158033,8.88847655,3.06569648,
51.9000,8.0628,-1.6084,-2.2688,9.89158033,8.88847655,3.06569648,
51.9020,8.0628,-1.6084,-2.2688,9.89158033,8.88847655,3.06569648,
51.9100,8.0628,-1.6084,-2.2688,9.89158033,8.88847655,3.06569648,
51.9120,8.0628,-1.6084,-2.2688,9.89158033,8.88847655,3.06569648,
51.9130,7.8203,-1.2503,-1.6483,9.89158033,8.88847655,3.06569648,
51.9210,7.8203,-1.2503,-1.6483,9.89158033,8.88847655,3.06569648,
51.9230,7.8203,-1.2503,-1.6483,9.89158033,8.88847655,3.06569648,
51.9310,7.8203,-1.2503,-1.6483,9.89158033,8.88847655,3.06569648,
51.9330,7.8203,-1.2503,-1.6483,9.89158033,8.88847655,3.06569648,
51.9340,6.7771,-1.4969,-2.4342,9.89158033,8.88847655,3.06569648,
51.9400,6.7771,-1.4969,-2.4342,9.89158033,8.88847655,3.06569648,
51.9420,6.7771,-1.4969,-2.4342,9.89158033,8.88847655,3.06569648,
51.9500,6.7771,-1.4969,-2.4342,9.89158033,8.88847655,3.06569648,
51.9520,6.7771,-1.4969,-2.4342,9.89158033,8.88847655,3.06569648,
51.9530,5.4560,-1.6663,-1.6762,9.89158033,8.88847655,3.06569648,
51.9600,5.4560,-1.6663,-1.6762,9.89158033,8.88847655,3.06569648,
51.9620,5.4560,-1.6663,-1.6762,9.89158033,8.88847655,3.06569648,
51.9720,5.4560,-1.6663,-1.6762,9.89158033,8.88847655,3.06569648,
51.9740,5.4560,-1.6663,-1.6762,9.89158033,8.88847655,3.06569648,
51.9740,2.9714,-0.5648,1.3699,9.89158033,8.88847655,3.06569648,
51.9800,2.9714,-0.5648,1.3699,9.89158033,8.88847655,3.06569648,
51.9830,2.9714,-0.5648,1.3699,9.89158033,8.88847655,3.06569648,
51.9900,2.9714,-0.5648,1.3699,9.89158033,8.88847655,3.06569648,
51.9920,2.9714,-0.5648,1.3699,9.89158033,8.88847655,3.06569648,
51.9930,0.8285,1.3015,1.6564,9.89158033,8.88847655,3.06569648,
52.0000,0.8285,1.3015,1.6564,9.89158033,8.88847655,3.06569648,
52.0020,0.8285,1.3015,1.6564,9.89158033,8.88847655,3.06569648,
52.0100,0.8285,1.3015,1.6564,9.89158033,8.88847655,3.06569648,
52.0120,0.8285,1.3015,1.6564,9.89158033,8.88847655,3.06569648,
52.0150,1.0603,3.0361,-0.8642,9.89158033,8.88847655,3.06569648,
52.0200,1.0603,3.0361,-0.8642,9.89158033,8.88847655,3.06569648,
52.0240,1.0603,3.0361,-0.8642,9.89158033,8.88847655,3.06569648,
52.0300,1.0603,3.0361,-0.8642,9.89158033,8.88847655,3.06569648,
52.0320,1.0603,3.0361,-0.8642,9.89158033,8.88847655,3.06569648,
52.0330,2.3540,3.9616,-1.2707,9.89158033,8.88847655,3.06569648,
52.0420,2.3540,3.9616,-1.2707,9.89158033,8.88847655,3.06569648,
52.0430,2.3540,3.9616,-1.2707,9.89158033,8.88847655,3.06569648,
52.0500,2.3540,3.9616,-1.2707,9.89158033,8.88847655,3.06569648,
52.0530,2.3540,3.9616,-1.2707,9.89158033,8.88847655,3.06569648,
52.0540,1.7595,3.2270,1.9405,9.89158033,8.88847655,3.06569648,
52.0600,1.7595,3.2270,1.9405,9.89158033,8.88847655,3.06569648,
52.0620,1.7595,3.2270,1.9405,9.89158033,8.88847655,3.06569648,
52.0700,1.7595,3.2270,1.9405,9.89158033,8.88847655,3.06569648,
52.0710,1.7595,3.2270,1.9405,9.89158033,8.88847655,3.06569648,
52.0750,-0.8260,2.5097,2.8504,9.89158033,8.88847655,3.06569648,
52.0800,-0.8260,2.5097,2.8504,9.89158033,8.88847655,3.06569648,
52.0810,-0.8260,2.5097,2.8504,9.89158033,8.88847655,3.06569648,
52.0920,-0.8260,2.5097,2.8504,9.89158033,8.88847655,3.06569648,
52.0940,-0.8260,2.5097,2.8504,9.89158033,8.88847655,3.06569648,
52.0940,-3.3120,0.7560,2.3644,9.89158033,8.88847655,3.06569648,
52.1000,-3.3120,0.7560,2.3644,9.89158033,8.88847655,3.06569648,
52.1020,-3.3120,0.7560,2.3644,9.89158033,8.88847655,3.06569648,
52.1100,-3.3120,0.7560,2.3644,9.89158033,8.88847655,3.06569648,
52.1120,-3.3120,0.7560,2.3644,9.89158033,8.88847655,3.06569648,
52.1130,-4.8629,-1.7985,3.2796,9.89158033,8.88847655,3.06569648,
52.1200,-4.8629,-1.7985,3.2796,9.89158033,8.88847655,3.06569648,
52.1220,-4.8629,-1.7985,3.2796,9.89158033,8.88847655,3.06569648,
52.1300,-4.8629,-1.7985,3.2796,9.89158033,8.88847655,3.06569648,
52.1320,-4.8629,-1.7985,3.2796,9.89158033,8.88847655,3.06569648,
52.1330,-5.1049,-2.6966,3.1083,9.89158033,8.88847655,3.06569648,
52.1400,-5.1049,-2.6966,3.1083,9.89158033,8.88847655,3.06569648,
52.1440,-5.1049,-2.6966,3.1083,9.89158033,8.88847655,3.06569648,
52.1500,-5.1049,-2.6966,3.1083,9.89158033,8.88847655,3.06569648,
52.1520,-5.1049,-2.6966,3.1083,9.89158033,8.88847655,3.06569648,
52.1530,-5.1265,-4.2200,1.2353,9.89158033,8.88847655,3.06569648,
52.1600,-5.1265,-4.2200,1.2353,9.89158033,8.88847655,3.06569648,
52.1610,-5.1265,-4.2200,1.2353,9.89158033,8.88847655,3.06569648,
52.1700,-5.1265,-4.2200,1.2353,9.89158033,8.88847655,3.06569648,
52.1710,-5.1265,-4.2200,1.2353,9.89158033,8.88847655,3.06569648,
52.1730,-6.5208,-4.9492,-1.5726,9.89158033,8.88847655,3.06569648,
52.1800,-6.5208,-4.9492,-1.5726,9.89158033,8.88847655,3.06569648,
52.1820,-6.5208,-4.9492,-1.5726,9.89158033,8.88847655,3.06569648,
52.1900,-6.5208,-4.9492,-1.5726,9.89158033,8.88847655,3.06569648,
52.1920,-6.5208,-4.9492,-1.5726,9.89158033,8.88847655,3.06569648,
52.1940,-10.1765,-6.1861,-2.2631,9.89158033,8.88847655,3.06569648,
52.2050,-10.1765,-6.1861,-2.2631,9.89158033,8.88847655,3.06569648,
52.2060,-10.1765,-6.1861,-2.2631,9.89158033,8.88847655,3.06569648,
52.2100,-10.1765,-6.1861,-2.2631,9.89158033,8.88847655,3.06569648,
52.2120,-10.1765,-6.1861,-2.2631,9.89158033,8.88847655,3.06569648,
52.2140,-13.4705,-7.1880,-0.9568,9.89158033,8.88847655,3.06569648,
52.2200,-13.4705,-7.1880,-0.9568,9.89158033,8.88847655,3.06569648,
52.2210,-13.4705,-7.1880,-0.9568,9.89158033,8.88847655,3.06569648,
52.2300,-13.4705,-7.1880,-0.9568,9.89158033,8.88847655,3.06569648,
52.2310,-13.4705,-7.1880,-0.9568,9.89158033,8.88847655,3.06569648,
52.2330,-14.2277,-7.6164,-1.5438,9.89158033,8.88847655,3.06569648,
52.2400,-14.2277,-7.6164,-1.5438,9.89158033,8.88847655,3.06569648,
52.2410,-14.2277,-7.6164,-1.5438,9.89158033,8.88847655,3.06569648,
52.2500,-14.2277,-7.6164,-1.5438,9.89158033,8.88847655,3.06569648,
52.2520,-14.2277,-7.6164,-1.5438,9.89158033,8.88847655,3.06569648,
52.2530,-14.1676,-6.6778,-3.2095,9.89158033,8.88847655,3.06569648,
52.2610,-14.1676,-6.6778,-3.2095,9.89158033,8.88847655,3.06569648,
52.2630,-14.1676,-6.6778,-3.2095,9.89158033,8.88847655,3.06569648,
52.2700,-14.1676,-6.6778,-3.2095,9.89158033,8.88847655,3.06569648,
52.2710,-14.1676,-6.6778,-3.2095,9.89158033,8.88847655,3.06569648,
52.2730,-13.9802,-4.8535,-0.0824,9.89158033,8.88847655,3.06569648,
52.2800,-13.9802,-4.8535,-0.0824,9.89158033,8.88847655,3.06569648,
52.2810,-13.9802,-4.8535,-0.0824,9.89158033,8.88847655,3.06569648,
52.2900,-13.9802,-4.8535,-0.0824,9.89158033,8.88847655,3.06569648,
52.2910,-13.9802,-4.8535,-0.0824,9.89158033,8.88847655,3.06569648,
52.2930,-10.9582,-3.9838,8.8815,9.89158033,8.88847655,3.06569648,
52.3000,-10.9582,-3.9838,8.8815,9.89158033,8.88847655,3.06569648,
52.3020,-10.9582,-3.9838,8.8815,9.89158033,8.88847655,3.06569648,
52.3100,-10.9582,-3.9838,8.8815,9.89158033,8.88847655,3.06569648,
52.3130,-10.9582,-3.9838,8.8815,9.89158033,8.88847655,3.06569648,
52.3160,-6.8156,-2.0291,17.3920,9.89158033,8.88847655,3.06569648,
52.3200,-6.8156,-2.0291,17.3920,9.89158033,8.88847655,3.06569648,
52.3210,-6.8156,-2.0291,17.3920,9.89158033,8.88847655,3.06569648,
52.3380,-6.8156,-2.0291,17.3920,9.89158033,8.88847655,3.06569648,
52.3380,-6.8156,-2.0291,17.3920,9.89158033,8.88847655,3.06569648,
52.3390,-0.9394,0.3387,19.0886,9.89158033,8.88847655,3.06569648,
52.3390,-0.9394,0.3387,19.0886,9.89158033,8.88847655,3.06569648,
52.3420,-0.9394,0.3387,19.0886,9.89158033,8.88847655,3.06569648,
52.3500,-0.9394,0.3387,19.0886,9.89158033,8.88847655,3.06569648,
52.3510,-0.9394,0.3387,19.0886,9.89158033,8.88847655,3.06569648,
52.3540,3.3821,2.3222,18.0988,9.89158033,8.88847655,3.06569648,
52.3600,3.3821,2.3222,18.0988,9.89158033,8.88847655,3.06569648,
52.3620,3.3821,2.3222,18.0988,9.89158033,8.88847655,3.06569648,
52.3700,3.3821,2.3222,18.0988,9.89158033,8.88847655,3.06569648,
52.3710,3.3821,2.3222,18.0988,9.89158033,8.88847655,3.06569648,
52.3740,6.6237,2.3777,15.9607,9.89158033,8.88847655,3.06569648,
52.3800,6.6237,2.3777,15.9607,9.89158033,8.88847655,3.06569648,
52.3820,6.6237,2.3777,15.9607,9.89158033,8.88847655,3.06569648,
52.3900,6.6237,2.3777,15.9607,9.89158033,8.88847655,3.06569648,
52.3910,6.6237,2.3777,15.9607,9.89158033,8.88847655,3.06569648,
52.3930,8.8748,0.3709,12.7174,9.89158033,8.88847655,3.06569648,
52.4000,8.8748,0.3709,12.7174,9.89158033,8.88847655,3.06569648,
52.4020,8.8748,0.3709,12.7174,9.89158033,8.88847655,3.06569648,
52.4100,8.8748,0.3709,12.7174,9.89158033,8.88847655,3.06569648,
52.4110,8.8748,0.3709,12.7174,9.89158033,8.88847655,3.06569648,
52.4140,10.9885,-0.4122,6.2159,9.89158033,8.88847655,3.06569648,
52.4200,10.9885,-0.4122,6.2159,9.89158033,8.88847655,3.06569648,
52.4220,10.9885,-0.4122,6.2159,9.89158033,8.88847655,3.06569648,
52.4310,10.9885,-0.4122,6.2159,9.89158033,8.88847655,3.06569648,
52.4340,10.9885,-0.4122,6.2159,9.89158033,8.88847655,3.06569648,
52.4340,11.8328,0.0589,-1.0661,9.89158033,8.88847655,3.06569648,
52.4400,11.8328,0.0589,-1.0661,9.89158033,8.88847655,3.06569648,
52.4420,11.8328,0.0589,-1.0661,9.89158033,8.88847655,3.06569648,
52.4500,11.8328,0.0589,-1.0661,9.89158033,8.88847655,3.06569648,
52.4530,11.8328,0.0589,-1.0661,9.89158033,8.88847655,3.06569648,
52.4540,11.4302,0.8756,-7.0853,9.89158033,8.88847655,3.06569648,
52.4600,11.4302,0.8756,-7.0853,9.89158033,8.88847655,3.06569648,
52.4620,11.4302,0.8756,-7.0853,9.89158033,8.88847655,3.06569648,
52.5060,11.4302,0.8756,-7.0853,9.89158033,8.88847655,3.06569648,
52.5080,11.4302,0.8756,-7.0853,9.89158033,8.88847655,3.06569648,
52.5100,10.6483,0.8461,-10.0086,9.89158033,8.88847655,3.06569648,
52.5120,10.6483,0.8461,-10.0086,9.89158033,8.88847655,3.06569648,
52.5130,10.6483,0.8461,-10.0086,9.89158033,8.88847655,3.06569648,
52.5140,10.6483,0.8461,-10.0086,9.89158033,8.88847655,3.06569648,
52.5160,10.6483,0.8461,-10.0086,9.89158033,8.88847655,3.06569648,
52.5170,10.4296,0.4955,-10.5495,9.89158033,8.88847655,3.06569648,
52.5180,10.4296,0.4955,-10.5495,9.89158033,8.88847655,3.06569648,
52.5190,10.4296,0.4955,-10.5495,9.89158033,8.88847655,3.06569648,
52.5200,10.4296,0.4955,-10.5495,9.89158033,8.88847655,3.06569648,
52.5210,10.4296,0.4955,-10.5495,9.89158033,8.88847655,3.06569648,
52.5230,10.5130,0.4583,-11.7581,9.89158033,8.88847655,3.06569648,
52.5250,10.5130,0.4583,-11.7581,9.89158033,8.88847655,3.06569648,
52.5260,10.5130,0.4583,-11.7581,9.89158033,8.88847655,3.06569648,
52.5490,10.5130,0.4583,-11.7581,9.89158033,8.88847655,3.06569648,
52.5500,10.5130,0.4583,-11.7581,9.89158033,8.88847655,3.06569648,
52.5510,10.3628,0.4000,-13.1947,9.89158033,8.88847655,3.06569648,
52.5540,10.3628,0.4000,-13.1947,9.89158033,8.88847655,3.06569648,
52.5550,10.3628,0.4000,-13.1947,9.89158033,8.88847655,3.06569648,
52.5560,10.3628,0.4000,-13.1947,9.89158033,8.88847655,3.06569648,
52.5570,10.3628,0.4000,-13.1947,9.89158033,8.88847655,3.06569648,
52.5580,8.7907,0.9482,-12.1108,9.89158033,8.88847655,3.06569648,
52.5600,8.7907,0.9482,-12.1108,9.89158033,8.88847655,3.06569648,
52.5620,8.7907,0.9482,-12.1108,9.89158033,8.88847655,3.06569648,
52.5720,8.7907,0.9482,-12.1108,9.89158033,8.88847655,3.06569648,
52.5740,8.7907,0.9482,-12.1108,9.89158033,8.88847655,3.06569648,
52.5750,6.4135,1.6643,-10.1183,9.89158033,8.88847655,3.06569648,
52.6000,6.4135,1.6643,-10.1183,9.89158033,8.88847655,3.06569648,
52.6010,6.4135,1.6643,-10.1183,9.89158033,8.88847655,3.06569648,
52.6020,6.4135,1.6643,-10.1183,9.89158033,8.88847655,3.06569648,
52.6030,6.4135,1.6643,-10.1183,9.89158033,8.88847655,3.06569648,
52.6030,4.0158,1.7762,-7.5706,9.89158033,8.88847655,3.06569648,
52.6040,4.0158,1.7762,-7.5706,9.89158033,8.88847655,3.06569648,
52.6050,4.0158,1.7762,-7.5706,9.89158033,8.88847655,3.06569648,
52.6140,4.0158,1.7762,-7.5706,9.89158033,8.88847655,3.06569648,
52.6150,4.0158,1.7762,-7.5706,9.89158033,8.88847655,3.06569648,
52.6150,2.5756,1.4484,-5.3315,9.89158033,8.88847655,3.06569648,
52.6350,2.5756,1.4484,-5.3315,9.89158033,8.88847655,3.06569648,
52.6360,2.5756,1.4484,-5.3315,9.89155948,8.88845979,2.78521323,
52.6360,2.5756,1.4484,-5.3315,9.89155948,8.88845979,2.78521323,
52.6370,2.5756,1.4484,-5.3315,9.89155948,8.88845979,2.78521323,
52.6370,1.5015,1.0539,-4.1864,9.89155948,8.88845979,2.78521323,
52.6400,1.5015,1.0539,-4.1864,9.89155948,8.88845979,2.78521323,
52.6420,1.5015,1.0539,-4.1864,9.89155948,8.88845979,2.78521323,
52.6500,1.5015,1.0539,-4.1864,9.89155948,8.88845979,2.78521323,
52.6530,1.5015,1.0539,-4.1864,9.89155948,8.88845979,2.78521323,
52.6540,0.4129,0.7479,-4.9603,9.89155948,8.88845979,2.78521323,
52.6600,0.4129,0.7479,-4.9603,9.89155948,8.88845979,2.78521323,
52.6620,0.4129,0.7479,-4.9603,9.89155948,8.88845979,2.78521323,
52.6700,0.4129,0.7479,-4.9603,9.89155948,8.88845979,2.78521323,
52.6720,0.4129,0.7479,-4.9603,9.89155948,8.88845979,2.78521323,
52.6730,-0.5889,0.9706,-6.1582,9.89155948,8.88845979,2.78521323,
52.6800,-0.5889,0.9706,-6.1582,9.89155948,8.88845979,2.78521323,
52.6810,-0.5889,0.9706,-6.1582,9.89155948,8.88845979,2.78521323,
52.6900,-0.5889,0.9706,-6.1582,9.89155948,8.88845979,2.78521323,
52.6920,-0.5889,0.9706,-6.1582,9.89155948,8.88845979,2.78521323,
52.6940,-1.6904,0.9283,-7.0169,9.89155948,8.88845979,2.78521323,
52.6990,-1.6904,0.9283,-7.0169,9.89155948,8.88845979,2.78521323,
52.7020,-1.6904,0.9283,-7.0169,9.89155948,8.88845979,2.78521323,
52.7100,-1.6904,0.9283,-7.0169,9.89155948,8.88845979,2.78521323,
52.7120,-1.6904,0.9283,-7.0169,9.89155948,8.88845979,2.78521323,
52.7130,-2.5323,0.6711,-7.9427,9.89155948,8.88845979,2.78521323,
52.7200,-2.5323,0.6711,-7.9427,9.89155948,8.88845979,2.78521323,
52.7220,-2.5323,0.6711,-7.9427,9.89155948,8.88845979,2.78521323,
52.7300,-2.5323,0.6711,-7.9427,9.89155948,8.88845979,2.78521323,
52.7310,-2.5323,0.6711,-7.9427,9.89155948,8.88845979,2.78521323,
52.7330,-3.5479,0.0755,-8.3446,9.89155948,8.88845979,2.78521323,
52.7400,-3.5479,0.0755,-8.3446,9.89155948,8.88845979,2.78521323,
52.7410,-3.5479,0.0755,-8.3446,9.89155948,8.88845979,2.78521323,
52.7500,-3.5479,0.0755,-8.3446,9.89155948,8.88845979,2.78521323,
52.7510,-3.5479,0.0755,-8.3446,9.89155948,8.88845979,2.78521323,
52.7540,-4.6027,-0.7790,-8.3529,9.89155948,8.88845979,2.78521323,
52.7600,-4.6027,-0.7790,-8.3529,9.89155948,8.88845979,2.78521323,
52.7620,-4.6027,-0.7790,-8.3529,9.89155948,8.88845979,2.78521323,
52.7730,-4.6027,-0.7790,-8.3529,9.89155948,8.88845979,2.78521323,
52.7750,-4.6027,-0.7790,-8.3529,9.89155948,8.88845979,2.78521323,
52.7760,-5.7173,-1.2235,-8.8483,9.89155948,8.88845979,2.78521323,
52.7800,-5.7173,-1.2235,-8.8483,9.89155948,8.88845979,2.78521323,
52.7820,-5.7173,-1.2235,-8.8483,9.89155948,8.88845979,2.78521323,
52.7900,-5.7173,-1.2235,-8.8483,9.89155948,8.88845979,2.78521323,
52.7920,-5.7173,-1.2235,-8.8483,9.89155948,8.88845979,2.78521323,
52.7940,-6.7153,-1.0276,-9.3143,9.89155948,8.88845979,2.78521323,
52.8000,-6.7153,-1.0276,-9.3143,9.89155948,8.88845979,2.78521323,
52.8010,-6.7153,-1.0276,-9.3143,9.89155948,8.88845979,2.78521323,
52.8100,-6.7153,-1.0276,-9.3143,9.89155948,8.88845979,2.78521323,
52.8120,-6.7153,-1.0276,-9.3143,9.89155948,8.88845979,2.78521323,
52.8140,-7.1334,-0.7540,-8.7061,9.89155948,8.88845979,2.78521323,
52.8190,-7.1334,-0.7540,-8.7061,9.89155948,8.88845979,2.78521323,
52.8220,-7.1334,-0.7540,-8.7061,9.89155948,8.88845979,2.78521323,
52.8300,-7.1334,-0.7540,-8.7061,9.89155948,8.88845979,2.78521323,
52.8320,-7.1334,-0.7540,-8.7061,9.89155948,8.88845979,2.78521323,
52.8360,-7.9980,0.6302,-7.6729,9.89155948,8.88845979,2.78521323,
52.8400,-7.9980,0.6302,-7.6729,9.89155948,8.88845979,2.78521323,
52.8420,-7.9980,0.6302,-7.6729,9.89155948,8.88845979,2.78521323,
52.8500,-7.9980,0.6302,-7.6729,9.89155948,8.88845979,2.78521323,
52.8510,-7.9980,0.6302,-7.6729,9.89155948,8.88845979,2.78521323,
52.8530,-8.3690,2.0448,-3.2158,9.89155948,8.88845979,2.78521323,
52.8600,-8.3690,2.0448,-3.2158,9.89155948,8.88845979,2.78521323,
52.8610,-8.3690,2.0448,-3.2158,9.89155948,8.88845979,2.78521323,
52.8700,-8.3690,2.0448,-3.2158,9.89155948,8.88845979,2.78521323,
52.8710,-8.3690,2.0448,-3.2158,9.89155948,8.88845979,2.78521323,
52.8740,-4.6579,4.5004,4.8350,9.89155948,8.88845979,2.78521323,
52.8800,-4.6579,4.5004,4.8350,9.89155948,8.88845979,2.78521323,
52.8820,-4.6579,4.5004,4.8350,9.89155948,8.88845979,2.78521323,
52.8900,-4.6579,4.5004,4.8350,9.89155948,8.88845979,2.78521323,
52.8920,-4.6579,4.5004,4.8350,9.89155948,8.88845979,2.78521323,
52.8930,-2.2443,8.2432,3.3140,9.89155948,8.88845979,2.78521323,
52.8990,-2.2443,8.2432,3.3140,9.89155948,8.88845979,2.78521323,
52.9010,-2.2443,8.2432,3.3140,9.89155948,8.88845979,2.78521323,
52.9100,-2.2443,8.2432,3.3140,9.89155948,8.88845979,2.78521323,
52.9110,-2.2443,8.2432,3.3140,9.89155948,8.88845979,2.78521323,
52.9130,-7.9779,10.2008,2.3262,9.89155948,8.88845979,2.78521323,
52.9200,-7.9779,10.2008,2.3262,9.89155948,8.88845979,2.78521323,
52.9210,-7.9779,10.2008,2.3262,9.89155948,8.88845979,2.78521323,
52.9310,-7.9779,10.2008,2.3262,9.89155948,8.88845979,2.78521323,
52.9330,-7.9779,10.2008,2.3262,9.89155948,8.88845979,2.78521323,
52.9380,-12.5064,5.0378,4.5564,9.89155948,8.88845979,2.78521323,
52.9400,-12.5064,5.0378,4.5564,9.89155948,8.88845979,2.78521323,
52.9530,-12.5064,5.0378,4.5564,9.89155948,8.88845979,2.78521323,
52.9540,-12.5064,5.0378,4.5564,9.89155948,8.88845979,2.78521323,
52.9540,-12.5064,5.0378,4.5564,9.89155948,8.88845979,2.78521323,
52.9550,-14.6096,-6.4207,6.9841,9.89155948,8.88845979,2.78521323,
52.9600,-14.6096,-6.4207,6.9841,9.89155948,8.88845979,2.78521323,
52.9620,-14.6096,-6.4207,6.9841,9.89155948,8.88845979,2.78521323,
52.9700,-14.6096,-6.4207,6.9841,9.89155948,8.88845979,2.78521323,
52.9710,-14.6096,-6.4207,6.9841,9.89155948,8.88845979,2.78521323,
52.9730,-14.7136,-15.9100,10.2557,9.89155948,8.88845979,2.78521323,
52.9860,-14.7136,-15.9100,10.2557,9.89155948,8.88845979,2.78521323,
52.9870,-14.7136,-15.9100,10.2557,9.89155948,8.88845979,2.78521323,
52.9900,-14.7136,-15.9100,10.2557,9.89155948,8.88845979,2.78521323,
52.9910,-14.7136,-15.9100,10.2557,9.89155948,8.88845979,2.78521323,
52.9940,-15.1028,-17.7328,17.7908,9.89155948,8.88845979,2.78521323,
53.0000,-15.1028,-17.7328,17.7908,9.89155948,8.88845979,2.78521323,
53.0010,-15.1028,-17.7328,17.7908,9.89155948,8.88845979,2.78521323,
53.0100,-15.1028,-17.7328,17.7908,9.89155948,8.88845979,2.78521323,
53.0120,-15.1028,-17.7328,17.7908,9.89155948,8.88845979,2.78521323,
53.0130,-16.2680,-14.2183,24.3772,9.89155948,8.88845979,2.78521323,
53.0200,-16.2680,-14.2183,24.3772,9.89155948,8.88845979,2.78521323,
53.0210,-16.2680,-14.2183,24.3772,9.89155948,8.88845979,2.78521323,
53.0300,-16.2680,-14.2183,24.3772,9.89155948,8.88845979,2.78521323,
53.0310,-16.2680,-14.2183,24.3772,9.89155948,8.88845979,2.78521323,
53.0330,-14.1494,-11.9370,25.3243,9.89155948,8.88845979,2.78521323,
53.0400,-14.1494,-11.9370,25.3243,9.89155948,8.88845979,2.78521323,
53.0410,-14.1494,-11.9370,25.3243,9.89155948,8.88845979,2.78521323,
53.0500,-14.1494,-11.9370,25.3243,9.89155948,8.88845979,2.78521323,
53.0520,-14.1494,-11.9370,25.3243,9.89155948,8.88845979,2.78521323,
53.0540,-9.2955,-9.7697,24.7232,9.89155948,8.88845979,2.78521323,
53.0690,-9.2955,-9.7697,24.7232,9.89155948,8.88845979,2.78521323,
53.0700,-9.2955,-9.7697,24.7232,9.89155948,8.88845979,2.78521323,
53.0700,-9.2955,-9.7697,24.7232,9.89155948,8.88845979,2.78521323,
53.0720,-9.2955,-9.7697,24.7232,9.89155948,8.88845979,2.78521323,
53.0730,-4.3124,-5.6149,19.9591,9.89155948,8.88845979,2.78521323,
53.0810,-4.3124,-5.6149,19.9591,9.89155948,8.88845979,2.78521323,
53.0820,-4.3124,-5.6149,19.9591,9.89155948,8.88845979,2.78521323,
53.0910,-4.3124,-5.6149,19.9591,9.89155948,8.88845979,2.78521323,
53.0910,-4.3124,-5.6149,19.9591,9.89155948,8.88845979,2.78521323,
53.0950,-0.2309,-2.2173,12.5054,9.89155948,8.88845979,2.78521323,
53.1000,-0.2309,-2.2173,12.5054,9.89155948,8.88845979,2.78521323,
53.1030,-0.2309,-2.2173,12.5054,9.89155948,8.88845979,2.78521323,
53.1120,-0.2309,-2.2173,12.5054,9.89155948,8.88845979,2.78521323,
53.1140,-0.2309,-2.2173,12.5054,9.89155948,8.88845979,2.78521323,
53.1150,2.6690,0.8984,5.0904,9.89155948,8.88845979,2.78521323,
53.1200,2.6690,0.8984,5.0904,9.89155948,8.88845979,2.78521323,
53.1220,2.6690,0.8984,5.0904,9.89155948,8.88845979,2.78521323,
53.1300,2.6690,0.8984,5.0904,9.89155948,8.88845979,2.78521323,
53.1310,2.6690,0.8984,5.0904,9.89155948,8.88845979,2.78521323,
53.1330,4.2295,3.1813,-2.5849,9.89155948,8.88845979,2.78521323,
53.1400,4.2295,3.1813,-2.5849,9.89155948,8.88845979,2.78521323,
53.1410,4.2295,3.1813,-2.5849,9.89155948,8.88845979,2.78521323,
53.1500,4.2295,3.1813,-2.5849,9.89155948,8.88845979,2.78521323,
53.1530,4.2295,3.1813,-2.5849,9.89155948,8.88845979,2.78521323,
53.1540,4.0465,3.8235,-6.9158,9.89155948,8.88845979,2.78521323,
53.1590,4.0465,3.8235,-6.9158,9.89155948,8.88845979,2.78521323,
53.1620,4.0465,3.8235,-6.9158,9.89155948,8.88845979,2.78521323,
53.1700,4.0465,3.8235,-6.9158,9.89155948,8.88845979,2.78521323,
53.1720,4.0465,3.8235,-6.9158,9.89155948,8.88845979,2.78521323,
53.1740,3.2275,3.4274,-7.1697,9.89155948,8.88845979,2.78521323,
53.1800,3.2275,3.4274,-7.1697,9.89155948,8.88845979,2.78521323,
53.1820,3.2275,3.4274,-7.1697,9.89155948,8.88845979,2.78521323,
53.1900,3.2275,3.4274,-7.1697,9.89155948,8.88845979,2.78521323,
53.1910,3.2275,3.4274,-7.1697,9.89155948,8.88845979,2.78521323,
53.1930,3.1148,1.5664,-6.1079,9.89155948,8.88845979,2.78521323,
53.2000,3.1148,1.5664,-6.1079,9.89155948,8.88845979,2.78521323,
53.2030,3.1148,1.5664,-6.1079,9.89155948,8.88845979,2.78521323,
53.2100,3.1148,1.5664,-6.1079,9.89155948,8.88845979,2.78521323,
53.2120,3.1148,1.5664,-6.1079,9.89155948,8.88845979,2.78521323,
53.2140,4.0836,-0.6144,-5.3466,9.89155948,8.88845979,2.78521323,
53.2200,4.0836,-0.6144,-5.3466,9.89155948,8.88845979,2.78521323,
53.2230,4.0836,-0.6144,-5.3466,9.89155948,8.88845979,2.78521323,
53.2310,4.0836,-0.6144,-5.3466,9.89155948,8.88845979,2.78521323,
53.2330,4.0836,-0.6144,-5.3466,9.89155948,8.88845979,2.78521323,
53.2350,5.8543,-1.7479,-6.0616,9.89155948,8.88845979,2.78521323,
53.2400,5.8543,-1.7479,-6.0616,9.89155948,8.88845979,2.78521323,
53.2420,5.8543,-1.7479,-6.0616,9.89155948,8.88845979,2.78521323,
53.2500,5.8543,-1.7479,-6.0616,9.89155948,8.88845979,2.78521323,
53.2520,5.8543,-1.7479,-6.0616,9.89155948,8.88845979,2.78521323,
53.2540,7.0834,-1.3063,-8.1592,9.89155948,8.88845979,2.78521323,
53.2600,7.0834,-1.3063,-8.1592,9.89155948,8.88845979,2.78521323,
53.2620,7.0834,-1.3063,-8.1592,9.89155948,8.88845979,2.78521323,
53.2700,7.0834,-1.3063,-8.1592,9.89155948,8.88845979,2.78521323,
53.2730,7.0834,-1.3063,-8.1592,9.89155948,8.88845979,2.78521323,
53.2740,7.8861,-0.4303,-9.9133,9.89155948,8.88845979,2.78521323,
53.2800,7.8861,-0.4303,-9.9133,9.89155948,8.88845979,2.78521323,
53.2830,7.8861,-0.4303,-9.9133,9.89155948,8.88845979,2.78521323,
53.2900,7.8861,-0.4303,-9.9133,9.89155948,8.88845979,2.78521323,
53.2920,7.8861,-0.4303,-9.9133,9.89155948,8.88845979,2.78521323,
53.2940,8.2599,-0.2132,-10.1854,9.89155948,8.88845979,2.78521323,
53.3050,8.2599,-0.2132,-10.1854,9.89155948,8.88845979,2.78521323,
53.3070,8.2599,-0.2132,-10.1854,9.89155948,8.88845979,2.78521323,
53.3110,8.2599,-0.2132,-10.1854,9.89155948,8.88845979,2.78521323,
53.3110,8.2599,-0.2132,-10.1854,9.89155948,8.88845979,2.78521323,
53.3140,9.6475,-0.0598,-9.8385,9.89155948,8.88845979,2.78521323,
53.3240,9.6475,-0.0598,-9.8385,9.89155948,8.88845979,2.78521323,
53.3250,9.6475,-0.0598,-9.8385,9.89155948,8.88845979,2.78521323,
53.3300,9.6475,-0.0598,-9.8385,9.89155948,8.88845979,2.78521323,
53.3330,9.6475,-0.0598,-9.8385,9.89155948,8.88845979,2.78521323,
53.3330,10.9314,-0.0043,-8.8735,9.89155948,8.88845979,2.78521323,
53.3400,10.9314,-0.0043,-8.8735,9.89155948,8.88845979,2.78521323,
53.3420,10.9314,-0.0043,-8.8735,9.89155948,8.88845979,2.78521323,
53.3500,10.9314,-0.0043,-8.8735,9.89155948,8.88845979,2.78521323,
53.3520,10.9314,-0.0043,-8.8735,9.89155948,8.88845979,2.78521323,
53.3530,11.8820,0.6849,-8.1346,9.89155948,8.88845979,2.78521323,
53.3600,11.8820,0.6849,-8.1346,9.89155948,8.88845979,2.78521323,
53.3610,11.8820,0.6849,-8.1346,9.89155948,8.88845979,2.78521323,
53.3700,11.8820,0.6849,-8.1346,9.89155948,8.88845979,2.78521323,
53.3710,11.8820,0.6849,-8.1346,9.89155948,8.88845979,2.78521323,
53.3730,12.4255,1.7743,-7.7795,9.89155948,8.88845979,2.78521323,
53.3800,12.4255,1.7743,-7.7795,9.89155948,8.88845979,2.78521323,
53.3810,12.4255,1.7743,-7.7795,9.89155948,8.88845979,2.78521323,
53.3900,12.4255,1.7743,-7.7795,9.89155948,8.88845979,2.78521323,
53.3920,12.4255,1.7743,-7.7795,9.89155948,8.88845979,2.78521323,
53.3930,13.4028,1.6866,-6.3396,9.89155948,8.88845979,2.78521323,
53.4000,13.4028,1.6866,-6.3396,9.89155948,8.88845979,2.78521323,
53.4030,13.4028,1.6866,-6.3396,9.89155948,8.88845979,2.78521323,
53.4100,13.4028,1.6866,-6.3396,9.89155948,8.88845979,2.78521323,
53.4120,13.4028,1.6866,-6.3396,9.89155948,8.88845979,2.78521323,
53.4140,13.1594,0.5218,-2.5805,9.89155948,8.88845979,2.78521323,
53.4200,13.1594,0.5218,-2.5805,9.89155948,8.88845979,2.78521323,
53.4220,13.1594,0.5218,-2.5805,9.89155948,8.88845979,2.78521323,
53.4300,13.1594,0.5218,-2.5805,9.89155948,8.88845979,2.78521323,
53.4320,13.1594,0.5218,-2.5805,9.89155948,8.88845979,2.78521323,
53.4340,10.7483,-1.5250,5.2461,9.89155948,8.88845979,2.78521323,
53.4400,10.7483,-1.5250,5.2461,9.89155948,8.88845979,2.78521323,
53.4430,10.7483,-1.5250,5.2461,9.89155948,8.88845979,2.78521323,
53.4830,10.7483,-1.5250,5.2461,9.89155948,8.88845979,2.78521323,
53.4840,10.7483,-1.5250,5.2461,9.89155948,8.88845979,2.78521323,
53.4850,6.5088,-2.0729,14.1807,9.89155948,8.88845979,2.78521323,
53.4860,6.5088,-2.0729,14.1807,9.89155948,8.88845979,2.78521323,
53.4860,6.5088,-2.0729,14.1807,9.89155948,8.88845979,2.78521323,
53.4870,6.5088,-2.0729,14.1807,9.89155948,8.88845979,2.78521323,
53.4870,6.5088,-2.0729,14.1807,9.89155948,8.88845979,2.78521323,
53.4880,0.6799,6.0364,14.6422,9.89155948,8.88845979,2.78521323,
53.4880,0.6799,6.0364,14.6422,9.89155948,8.88845979,2.78521323,
53.4890,0.6799,6.0364,14.6422,9.89155948,8.88845979,2.78521323,
53.4910,0.6799,6.0364,14.6422,9.89155948,8.88845979,2.78521323,
53.4920,0.6799,6.0364,14.6422,9.89155948,8.88845979,2.78521323,
53.5150,-3.5210,18.6021,0.4876,9.89155948,8.88845979,2.78521323,
53.5160,-3.5210,18.6021,0.4876,9.89155948,8.88845979,2.78521323,
53.5170,-3.5210,18.6021,0.4876,9.89155948,8.88845979,2.78521323,
53.5180,-3.5210,18.6021,0.4876,9.89155948,8.88845979,2.78521323,
53.5180,-3.5210,18.6021,0.4876,9.89155948,8.88845979,2.78521323,
53.5200,1.0692,13.1378,2.0674,9.89155948,8.88845979,2.78521323,
53.5210,1.0692,13.1378,2.0674,9.89155948,8.88845979,2.78521323,
53.5220,1.0692,13.1378,2.0674,9.89155948,8.88845979,2.78521323,
53.5500,1.0692,13.1378,2.0674,9.89155948,8.88845979,2.78521323,
53.5520,1.0692,13.1378,2.0674,9.89155948,8.88845979,2.78521323,
53.5530,7.4392,-4.4220,9.6012,9.89155948,8.88845979,2.78521323,
53.5550,7.4392,-4.4220,9.6012,9.89155948,8.88845979,2.78521323,
53.5560,7.4392,-4.4220,9.6012,9.89155948,8.88845979,2.78521323,
53.5570,7.4392,-4.4220,9.6012,9.89155948,8.88845979,2.78521323,
53.5570,7.4392,-4.4220,9.6012,9.89155948,8.88845979,2.78521323,
53.5580,10.1707,-13.8756,14.7521,9.89155948,8.88845979,2.78521323,
53.5600,10.1707,-13.8756,14.7521,9.89155948,8.88845979,2.78521323,
53.5770,10.1707,-13.8756,14.7521,9.89155948,8.88845979,2.78521323,
53.5780,10.1707,-13.8756,14.7521,9.89153803,8.88844788,2.91314721,
53.5790,10.1707,-13.8756,14.7521,9.89153803,8.88844788,2.91314721,
53.5800,4.2191,-12.6268,10.9308,9.89153803,8.88844788,2.91314721,
53.5810,4.2191,-12.6268,10.9308,9.89153803,8.88844788,2.91314721,
53.5820,4.2191,-12.6268,10.9308,9.89153803,8.88844788,2.91314721,
53.5900,4.2191,-12.6268,10.9308,9.89153803,8.88844788,2.91314721,
53.5920,4.2191,-12.6268,10.9308,9.89153803,8.88844788,2.91314721,
53.5940,-6.1873,-8.6130,3.9662,9.89153803,8.88844788,2.91314721,
53.6000,-6.1873,-8.6130,3.9662,9.89153803,8.88844788,2.91314721,
53.6010,-6.1873,-8.6130,3.9662,9.89153803,8.88844788,2.91314721,
53.6120,-6.1873,-8.6130,3.9662,9.89153803,8.88844788,2.91314721,
53.6130,-6.1873,-8.6130,3.9662,9.89153803,8.88844788,2.91314721,
53.6140,-14.1591,-4.2358,-0.3171,9.89153803,8.88844788,2.91314721,
53.6310,-14.1591,-4.2358,-0.3171,9.89153803,8.88844788,2.91314721,
53.6320,-14.1591,-4.2358,-0.3171,9.89153803,8.88844788,2.91314721,
53.6320,-14.1591,-4.2358,-0.3171,9.89153803,8.88844788,2.91314721,
53.6330,-14.1591,-4.2358,-0.3171,9.89153803,8.88844788,2.91314721,
53.6340,-16.3942,-1.4235,-3.5051,9.89153803,8.88844788,2.91314721,
53.6400,-16.3942,-1.4235,-3.5051,9.89153803,8.88844788,2.91314721,
53.6420,-16.3942,-1.4235,-3.5051,9.89153803,8.88844788,2.91314721,
53.6500,-16.3942,-1.4235,-3.5051,9.89153803,8.88844788,2.91314721,
53.6520,-16.3942,-1.4235,-3.5051,9.89153803,8.88844788,2.91314721,
53.6550,-16.3955,-0.1092,-6.1905,9.89153803,8.88844788,2.91314721,
53.6600,-16.3955,-0.1092,-6.1905,9.89153803,8.88844788,2.91314721,
53.6610,-16.3955,-0.1092,-6.1905,9.89153803,8.88844788,2.91314721,
53.6700,-16.3955,-0.1092,-6.1905,9.89153803,8.88844788,2.91314721,
53.6730,-16.3955,-0.1092,-6.1905,9.89153803,8.88844788,2.91314721,
53.6740,-14.7395,0.1376,-7.7171,9.89153803,8.88844788,2.91314721,
53.6800,-14.7395,0.1376,-7.7171,9.89153803,8.88844788,2.91314721,
53.6820,-14.7395,0.1376,-7.7171,9.89153803,8.88844788,2.91314721,
53.6900,-14.7395,0.1376,-7.7171,9.89153803,8.88844788,2.91314721,
53.6930,-14.7395,0.1376,-7.7171,9.89153803,8.88844788,2.91314721,
53.6940,-13.1043,0.0089,-8.3807,9.89153803,8.88844788,2.91314721,
53.7000,-13.1043,0.0089,-8.3807,9.89153803,8.88844788,2.91314721,
53.7010,-13.1043,0.0089,-8.3807,9.89153803,8.88844788,2.91314721,
53.7100,-13.1043,0.0089,-8.3807,9.89153803,8.88844788,2.91314721,
53.7120,-13.1043,0.0089,-8.3807,9.89153803,8.88844788,2.91314721,
53.7130,-10.9238,-0.6859,-9.4914,9.89153803,8.88844788,2.91314721,
53.7200,-10.9238,-0.6859,-9.4914,9.89153803,8.88844788,2.91314721,
53.7210,-10.9238,-0.6859,-9.4914,9.89153803,8.88844788,2.91314721,
53.7300,-10.9238,-0.6859,-9.4914,9.89153803,8.88844788,2.91314721,
53.7320,-10.9238,-0.6859,-9.4914,9.89153803,8.88844788,2.91314721,
53.7330,-9.0697,-2.2874,-11.1827,9.89153803,8.88844788,2.91314721,
53.7510,-9.0697,-2.2874,-11.1827,9.89153803,8.88844788,2.91314721,
53.7520,-9.0697,-2.2874,-11.1827,9.89153803,8.88844788,2.91314721,
53.7530,-9.0697,-2.2874,-11.1827,9.89153803,8.88844788,2.91314721,
53.7530,-9.0697,-2.2874,-11.1827,9.89153803,8.88844788,2.91314721,
53.7550,-10.0984,-3.5130,-12.8097,9.89153803,8.88844788,2.91314721,
53.7660,-10.0984,-3.5130,-12.8097,9.89153803,8.88844788,2.91314721,
53.7670,-10.0984,-3.5130,-12.8097,9.89153803,8.88844788,2.91314721,
53.7700,-10.0984,-3.5130,-12.8097,9.89153803,8.88844788,2.91314721,
53.7720,-10.0984,-3.5130,-12.8097,9.89153803,8.88844788,2.91314721,
53.7750,-9.5147,-4.3751,-11.3886,9.89153803,8.88844788,2.91314721,
53.7800,-9.5147,-4.3751,-11.3886,9.89153803,8.88844788,2.91314721,
53.7820,-9.5147,-4.3751,-11.3886,9.89153803,8.88844788,2.91314721,
53.7900,-9.5147,-4.3751,-11.3886,9.89153803,8.88844788,2.91314721,
53.8000,-9.5147,-4.3751,-11.3886,9.89153803,8.88844788,2.91314721,
53.8010,-8.4460,-2.9476,-6.5292,9.89153803,8.88844788,2.91314721,
53.8020,-8.4460,-2.9476,-6.5292,9.89153803,8.88844788,2.91314721,
53.8020,-8.4460,-2.9476,-6.5292,9.89153803,8.88844788,2.91314721,
53.8140,-8.4460,-2.9476,-6.5292,9.89153803,8.88844788,2.91314721,
53.8150,-8.4460,-2.9476,-6.5292,9.89153803,8.88844788,2.91314721,
53.8150,-10.1319,1.6880,7.4887,9.89153803,8.88844788,2.91314721,
53.8190,-10.1319,1.6880,7.4887,9.89153803,8.88844788,2.91314721,
53.8220,-10.1319,1.6880,7.4887,9.89153803,8.88844788,2.91314721,
53.8340,-10.1319,1.6880,7.4887,9.89153803,8.88844788,2.91314721,
53.8340,-10.1319,1.6880,7.4887,9.89153803,8.88844788,2.91314721,
53.8350,-13.7442,5.7443,23.0053,9.89153803,8.88844788,2.91314721,
53.8400,-13.7442,5.7443,23.0053,9.89153803,8.88844788,2.91314721,
53.8430,-13.7442,5.7443,23.0053,9.89153803,8.88844788,2.91314721,
53.8500,-13.7442,5.7443,23.0053,9.89153803,8.88844788,2.91314721,
53.8520,-13.7442,5.7443,23.0053,9.89153803,8.88844788,2.91314721,
53.8530,-13.0647,7.0096,29.2574,9.89153803,8.88844788,2.91314721,
53.8600,-13.0647,7.0096,29.2574,9.89153803,8.88844788,2.91314721,
53.8610,-13.0647,7.0096,29.2574,9.89153803,8.88844788,2.91314721,
53.8700,-13.0647,7.0096,29.2574,9.89153803,8.88844788,2.91314721,
53.8710,-13.0647,7.0096,29.2574,9.89153803,8.88844788,2.91314721,
53.8740,-9.1996,8.4307,24.1146,9.89153803,8.88844788,2.91314721,
53.8840,-9.1996,8.4307,24.1146,9.89153803,8.88844788,2.91314721,
53.8840,-9.1996,8.4307,24.1146,9.89153803,8.88844788,2.91314721,
53.8900,-9.1996,8.4307,24.1146,9.89153803,8.88844788,2.91314721,
53.8920,-9.1996,8.4307,24.1146,9.89153803,8.88844788,2.91314721,
53.8950,-2.6677,7.7277,14.2994,9.89153803,8.88844788,2.91314721,
53.9000,-2.6677,7.7277,14.2994,9.89153803,8.88844788,2.91314721,
53.9020,-2.6677,7.7277,14.2994,9.89153803,8.88844788,2.91314721,
53.9110,-2.6677,7.7277,14.2994,9.89153803,8.88844788,2.91314721,
53.9120,-2.6677,7.7277,14.2994,9.89153803,8.88844788,2.91314721,
53.9130,2.9572,4.9289,5.4595,9.89153803,8.88844788,2.91314721,
53.9200,2.9572,4.9289,5.4595,9.89153803,8.88844788,2.91314721,
53.9220,2.9572,4.9289,5.4595,9.89153803,8.88844788,2.91314721,
53.9320,2.9572,4.9289,5.4595,9.89153803,8.88844788,2.91314721,
53.9330,2.9572,4.9289,5.4595,9.89153803,8.88844788,2.91314721,
53.9330,6.1187,2.3733,0.3464,9.89153803,8.88844788,2.91314721,
53.9400,6.1187,2.3733,0.3464,9.89153803,8.88844788,2.91314721,
53.9410,6.1187,2.3733,0.3464,9.89153803,8.88844788,2.91314721,
53.9500,6.1187,2.3733,0.3464,9.89153803,8.88844788,2.91314721,
53.9530,6.1187,2.3733,0.3464,9.89153803,8.88844788,2.91314721,
53.9540,6.9211,1.0053,-2.0535,9.89153803,8.88844788,2.91314721,
53.9600,6.9211,1.0053,-2.0535,9.89153803,8.88844788,2.91314721,
53.9620,6.9211,1.0053,-2.0535,9.89153803,8.88844788,2.91314721,
53.9700,6.9211,1.0053,-2.0535,9.89153803,8.88844788,2.91314721,
53.9710,6.9211,1.0053,-2.0535,9.89153803,8.88844788,2.91314721,
53.9730,6.9492,0.5750,-3.3502,9.89153803,8.88844788,2.91314721,
53.9800,6.9492,0.5750,-3.3502,9.89153803,8.88844788,2.91314721,
53.9810,6.9492,0.5750,-3.3502,9.89153803,8.88844788,2.91314721,
53.9900,6.9492,0.5750,-3.3502,9.89153803,8.88844788,2.91314721,
53.9910,6.9492,0.5750,-3.3502,9.89153803,8.88844788,2.91314721,
53.9930,6.9400,1.0258,-4.9447,9.89153803,8.88844788,2.91314721,
54.0000,6.9400,1.0258,-4.9447,9.89153803,8.88844788,2.91314721,
54.0010,6.9400,1.0258,-4.9447,9.89153803,8.88844788,2.91314721,
54.0100,6.9400,1.0258,-4.9447,9.89153803,8.88844788,2.91314721,
54.0130,6.9400,1.0258,-4.9447,9.89153803,8.88844788,2.91314721,
54.0140,8.4419,1.9705,-6.6678,9.89153803,8.88844788,2.91314721,
54.0200,8.4419,1.9705,-6.6678,9.89153803,8.88844788,2.91314721,
54.0210,8.4419,1.9705,-6.6678,9.89153803,8.88844788,2.91314721,
54.0310,8.4419,1.9705,-6.6678,9.89153803,8.88844788,2.91314721,
54.0330,8.4419,1.9705,-6.6678,9.89153803,8.88844788,2.91314721,
54.0340,10.8502,3.2324,-7.9902,9.89153803,8.88844788,2.91314721,
54.0400,10.8502,3.2324,-7.9902,9.89153803,8.88844788,2.91314721,
54.0420,10.8502,3.2324,-7.9902,9.89153803,8.88844788,2.91314721,
54.0500,10.8502,3.2324,-7.9902,9.89153803,8.88844788,2.91314721,
54.0520,10.8502,3.2324,-7.9902,9.89153803,8.88844788,2.91314721,
54.0530,13.6134,4.7526,-8.5120,9.89153803,8.88844788,2.91314721,
54.0600,13.6134,4.7526,-8.5120,9.89153803,8.88844788,2.91314721,
54.0610,13.6134,4.7526,-8.5120,9.89153803,8.88844788,2.91314721,
54.0700,13.6134,4.7526,-8.5120,9.89153803,8.88844788,2.91314721,
54.0720,13.6134,4.7526,-8.5120,9.89153803,8.88844788,2.91314721,
54.0730,16.8738,4.2061,-9.0635,9.89153803,8.88844788,2.91314721,
54.0800,16.8738,4.2061,-9.0635,9.89153803,8.88844788,2.91314721,
54.0820,16.8738,4.2061,-9.0635,9.89153803,8.88844788,2.91314721,
54.0900,16.8738,4.2061,-9.0635,9.89153803,8.88844788,2.91314721,
54.0910,16.8738,4.2061,-9.0635,9.89153803,8.88844788,2.91314721,
54.0930,20.5838,0.8653,-8.0226,9.89153803,8.88844788,2.91314721,
54.1000,20.5838,0.8653,-8.0226,9.89153803,8.88844788,2.91314721,
54.1010,20.5838,0.8653,-8.0226,9.89153803,8.88844788,2.91314721,
54.1100,20.5838,0.8653,-8.0226,9.89153803,8.88844788,2.91314721,
54.1110,20.5838,0.8653,-8.0226,9.89153803,8.88844788,2.91314721,
54.1140,22.0971,-2.0381,-3.1225,9.89153803,8.88844788,2.91314721,
54.1200,22.0971,-2.0381,-3.1225,9.89153803,8.88844788,2.91314721,
54.1220,22.0971,-2.0381,-3.1225,9.89153803,8.88844788,2.91314721,
54.1300,22.0971,-2.0381,-3.1225,9.89153803,8.88844788,2.91314721,
54.1330,22.0971,-2.0381,-3.1225,9.89153803,8.88844788,2.91314721,
54.1350,20.0741,-4.3475,12.1356,9.89153803,8.88844788,2.91314721,
54.1400,20.0741,-4.3475,12.1356,9.89153803,8.88844788,2.91314721,
54.1420,20.0741,-4.3475,12.1356,9.89153803,8.88844788,2.91314721,
54.1500,20.0741,-4.3475,12.1356,9.89153803,8.88844788,2.91314721,
54.1520,20.0741,-4.3475,12.1356,9.89153803,8.88844788,2.91314721,
54.1540,14.1448,-6.9561,26.1449,9.89153803,8.88844788,2.91314721,
54.1600,14.1448,-6.9561,26.1449,9.89153803,8.88844788,2.91314721,
54.1620,14.1448,-6.9561,26.1449,9.89153803,8.88844788,2.91314721,
54.1700,14.1448,-6.9561,26.1449,9.89153803,8.88844788,2.91314721,
54.1740,14.1448,-6.9561,26.1449,9.89153803,8.88844788,2.91314721,
54.1750,8.5285,-6.3506,24.9125,9.89153803,8.88844788,2.91314721,
54.1800,8.5285,-6.3506,24.9125,9.89153803,8.88844788,2.91314721,
54.1840,8.5285,-6.3506,24.9125,9.89153803,8.88844788,2.91314721,
54.1900,8.5285,-6.3506,24.9125,9.89153803,8.88844788,2.91314721,
54.1920,8.5285,-6.3506,24.9125,9.89153803,8.88844788,2.91314721,
54.1930,0.0303,0.1112,19.1334,9.89153803,8.88844788,2.91314721,
54.2010,0.0303,0.1112,19.1334,9.89153803,8.88844788,2.91314721,
54.2030,0.0303,0.1112,19.1334,9.89153803,8.88844788,2.91314721,
54.2100,0.0303,0.1112,19.1334,9.89153803,8.88844788,2.91314721,
54.2120,0.0303,0.1112,19.1334,9.89153803,8.88844788,2.91314721,
54.2130,-7.3587,5.9405,12.2369,9.89153803,8.88844788,2.91314721,
54.2200,-7.3587,5.9405,12.2369,9.89153803,8.88844788,2.91314721,
54.2220,-7.3587,5.9405,12.2369,9.89153803,8.88844788,2.91314721,
54.2300,-7.3587,5.9405,12.2369,9.89153803,8.88844788,2.91314721,
54.2320,-7.3587,5.9405,12.2369,9.89153803,8.88844788,2.91314721,
54.2350,-7.4904,5.8201,9.1871,9.89153803,8.88844788,2.91314721,
54.2400,-7.4904,5.8201,9.1871,9.89153803,8.88844788,2.91314721,
54.2420,-7.4904,5.8201,9.1871,9.89153803,8.88844788,2.91314721,
54.2530,-7.4904,5.8201,9.1871,9.89153803,8.88844788,2.91314721,
54.2560,-7.4904,5.8201,9.1871,9.89153803,8.88844788,2.91314721,
54.2570,-5.4507,2.0888,5.6757,9.89153803,8.88844788,2.91314721,
54.2600,-5.4507,2.0888,5.6757,9.89153803,8.88844788,2.91314721,
54.2620,-5.4507,2.0888,5.6757,9.89153803,8.88844788,2.91314721,
54.2700,-5.4507,2.0888,5.6757,9.89153803,8.88844788,2.91314721,
54.2740,-5.4507,2.0888,5.6757,9.89153803,8.88844788,2.91314721,
54.2750,-5.5418,-1.2016,1.2609,9.89153803,8.88844788,2.91314721,
54.2800,-5.5418,-1.2016,1.2609,9.89153803,8.88844788,2.91314721,
54.2810,-5.5418,-1.2016,1.2609,9.89153803,8.88844788,2.91314721,
54.2900,-5.5418,-1.2016,1.2609,9.89153803,8.88844788,2.91314721,
54.2920,-5.5418,-1.2016,1.2609,9.89153803,8.88844788,2.91314721,
54.2930,-8.3200,-3.4052,-0.8919,9.89153803,8.88844788,2.91314721,
54.3010,-8.3200,-3.4052,-0.8919,9.89153803,8.88844788,2.91314721,
54.3020,-8.3200,-3.4052,-0.8919,9.89153803,8.88844788,2.91314721,
54.3100,-8.3200,-3.4052,-0.8919,9.89153803,8.88844788,2.91314721,
54.3110,-8.3200,-3.4052,-0.8919,9.89153803,8.88844788,2.91314721,
54.3130,-10.7550,-5.7879,-2.3484,9.89153803,8.88844788,2.91314721,
54.3260,-10.7550,-5.7879,-2.3484,9.89153803,8.88844788,2.91314721,
54.3270,-10.7550,-5.7879,-2.3484,9.89153803,8.88844788,2.91314721,
54.3300,-10.7550,-5.7879,-2.3484,9.89153803,8.88844788,2.91314721,
54.3310,-10.7550,-5.7879,-2.3484,9.89153803,8.88844788,2.91314721,
54.3340,-12.2753,-8.2144,-3.8773,9.89153803,8.88844788,2.91314721,
54.3400,-12.2753,-8.2144,-3.8773,9.89153803,8.88844788,2.91314721,
54.3420,-12.2753,-8.2144,-3.8773,9.89153803,8.88844788,2.91314721,
54.3500,-12.2753,-8.2144,-3.8773,9.89153803,8.88844788,2.91314721,
54.3530,-12.2753,-8.2144,-3.8773,9.89153803,8.88844788,2.91314721,
54.3550,-12.1837,-8.9627,-5.1941,9.89153803,8.88844788,2.91314721,
54.3600,-12.1837,-8.9627,-5.1941,9.89153803,8.88844788,2.91314721,
54.3610,-12.1837,-8.9627,-5.1941,9.89153803,8.88844788,2.91314721,
54.3700,-12.1837,-8.9627,-5.1941,9.89153803,8.88844788,2.91314721,
54.3720,-12.1837,-8.9627,-5.1941,9.89153803,8.88844788,2.91314721,
54.3740,-11.9600,-8.4748,-7.8354,9.89153803,8.88844788,2.91314721,
54.3800,-11.9600,-8.4748,-7.8354,9.89153803,8.88844788,2.91314721,
54.3810,-11.9600,-8.4748,-7.8354,9.89153803,8.88844788,2.91314721,
54.3900,-11.9600,-8.4748,-7.8354,9.89153803,8.88844788,2.91314721,
54.3920,-11.9600,-8.4748,-7.8354,9.89153803,8.88844788,2.91314721,
54.3930,-11.7215,-6.4660,-11.2328,9.89153803,8.88844788,2.91314721,
54.4000,-11.7215,-6.4660,-11.2328,9.89153803,8.88844788,2.91314721,
54.4020,-11.7215,-6.4660,-11.2328,9.89153803,8.88844788,2.91314721,
54.4150,-11.7215,-6.4660,-11.2328,9.89153803,8.88844788,2.91314721,
54.4180,-11.7215,-6.4660,-11.2328,9.89153803,8.88844788,2.91314721,
54.4200,-11.5134,-3.2511,-14.6973,9.89153803,8.88844788,2.91314721,
54.4230,-11.5134,-3.2511,-14.6973,9.89153803,8.88844788,2.91314721,
54.4250,-11.5134,-3.2511,-14.6973,9.89153803,8.88844788,2.91314721,
54.4350,-11.5134,-3.2511,-14.6973,9.89153803,8.88844788,2.91314721,
54.4360,-11.5134,-3.2511,-14.6973,9.89153803,8.88844788,2.91314721,
54.4370,-13.0340,0.6200,-15.1783,9.89153803,8.88844788,2.91314721,
54.4400,-13.0340,0.6200,-15.1783,9.89153803,8.88844788,2.91314721,
54.4410,-13.0340,0.6200,-15.1783,9.89153803,8.88844788,2.91314721,
54.4500,-13.0340,0.6200,-15.1783,9.89153803,8.88844788,2.91314721,
54.4520,-13.0340,0.6200,-15.1783,9.89153803,8.88844788,2.91314721,
54.4550,-13.1157,1.9943,-14.5104,9.89153803,8.88844788,2.91314721,
54.4930,-13.1157,1.9943,-14.5104,9.89153803,8.88844788,2.91314721,
54.4960,-13.1157,1.9943,-14.5104,9.89153803,8.88844788,2.91314721,
54.4970,-13.1157,1.9943,-14.5104,9.89153803,8.88844788,2.91314721,
54.4980,-13.1157,1.9943,-14.5104,9.89153803,8.88844788,2.91314721,
54.4990,-11.1474,0.7151,-11.4799,9.89153803,8.88844788,2.91314721,
54.5010,-11.1474,0.7151,-11.4799,9.89153803,8.88844788,2.91314721,
54.5020,-11.1474,0.7151,-11.4799,9.89153803,8.88844788,2.91314721,
54.5040,-11.1474,0.7151,-11.4799,9.89153803,8.88844788,2.91314721,
54.5050,-11.1474,0.7151,-11.4799,9.89153803,8.88844788,2.91314721,
54.5060,-6.6303,-1.5037,2.2894,9.89153803,8.88844788,2.91314721,
54.5080,-6.6303,-1.5037,2.2894,9.89153803,8.88844788,2.91314721,
54.5080,-6.6303,-1.5037,2.2894,9.89153803,8.88844788,2.91314721,
54.5260,-6.6303,-1.5037,2.2894,9.89153803,8.88844788,2.91314721,
54.5270,-6.6303,-1.5037,2.2894,9.89153803,8.88844788,2.91314721,
54.5280,-3.6144,-1.7619,17.6594,9.89153803,8.88844788,2.91314721,
54.5300,-3.6144,-1.7619,17.6594,9.89153803,8.88844788,2.91314721,
54.5310,-3.6144,-1.7619,17.6594,9.89153803,8.88844788,2.91314721,
54.5330,-3.6144,-1.7619,17.6594,9.89153803,8.88844788,2.91314721,
54.5340,-3.6144,-1.7619,17.6594,9.89153803,8.88844788,2.91314721,
54.5340,3.4057,-1.4748,17.1663,9.89153803,8.88844788,2.91314721,
54.5460,3.4057,-1.4748,17.1663,9.89153803,8.88844788,2.91314721,
54.5470,3.4057,-1.4748,17.1663,9.89153803,8.88844788,2.91314721,
54.5730,3.4057,-1.4748,17.1663,9.89153803,8.88844788,2.91314721,
54.5740,3.4057,-1.4748,17.1663,9.89153803,8.88844788,2.91314721,
54.5750,6.4895,4.8870,11.5542,9.89153803,8.88844788,2.91314721,
54.5760,6.4895,4.8870,11.5542,9.89153803,8.88844788,2.91314721,
54.5770,6.4895,4.8870,11.5542,9.89153803,8.88844788,2.91314721,
54.5780,6.4895,4.8870,11.5542,9.89153803,8.88844788,2.91314721,
54.5790,6.4895,4.8870,11.5542,9.89153803,8.88844788,2.91314721,
54.5800,8.5588,7.3552,6.7270,9.89153803,8.88844788,2.91314721,
54.5820,8.5588,7.3552,6.7270,9.89153803,8.88844788,2.91314721,
54.5830,8.5588,7.3552,6.7270,9.89153803,8.88844788,2.91314721,
54.6020,8.5588,7.3552,6.7270,9.89153803,8.88844788,2.91314721,
54.6040,8.5588,7.3552,6.7270,9.89151094,8.88843888,3.35469675,
54.6050,10.3085,2.7890,6.0014,9.89151094,8.88843888,3.35469675,
54.6050,10.3085,2.7890,6.0014,9.89151094,8.88843888,3.35469675,
54.6060,10.3085,2.7890,6.0014,9.89151094,8.88843888,3.35469675,
54.6100,10.3085,2.7890,6.0014,9.89151094,8.88843888,3.35469675,
54.6120,10.3085,2.7890,6.0014,9.89151094,8.88843888,3.35469675,
54.6140,12.0160,-1.3645,6.9018,9.89151094,8.88843888,3.35469675,
54.6200,12.0160,-1.3645,6.9018,9.89151094,8.88843888,3.35469675,
54.6210,12.0160,-1.3645,6.9018,9.89151094,8.88843888,3.35469675,
54.6300,12.0160,-1.3645,6.9018,9.89151094,8.88843888,3.35469675,
54.6310,12.0160,-1.3645,6.9018,9.89151094,8.88843888,3.35469675,
54.6330,12.1548,-1.9746,4.0206,9.89151094,8.88843888,3.35469675,
54.6400,12.1548,-1.9746,4.0206,9.89151094,8.88843888,3.35469675,
54.6420,12.1548,-1.9746,4.0206,9.89151094,8.88843888,3.35469675,
54.6500,12.1548,-1.9746,4.0206,9.89151094,8.88843888,3.35469675,
54.6520,12.1548,-1.9746,4.0206,9.89151094,8.88843888,3.35469675,
54.6530,10.9741,-1.0218,-0.7657,9.89151094,8.88843888,3.35469675,
54.6600,10.9741,-1.0218,-0.7657,9.89151094,8.88843888,3.35469675,
54.6620,10.9741,-1.0218,-0.7657,9.89151094,8.88843888,3.35469675,
54.6700,10.9741,-1.0218,-0.7657,9.89151094,8.88843888,3.35469675,
54.6720,10.9741,-1.0218,-0.7657,9.89151094,8.88843888,3.35469675,
54.6730,9.8847,-0.6115,-4.9959,9.89151094,8.88843888,3.35469675,
54.6800,9.8847,-0.6115,-4.9959,9.89151094,8.88843888,3.35469675,
54.6820,9.8847,-0.6115,-4.9959,9.89151094,8.88843888,3.35469675,
54.6900,9.8847,-0.6115,-4.9959,9.89151094,8.88843888,3.35469675,
54.6930,9.8847,-0.6115,-4.9959,9.89151094,8.88843888,3.35469675,
54.6950,9.5880,-1.1194,-6.4366,9.89151094,8.88843888,3.35469675,
54.7000,9.5880,-1.1194,-6.4366,9.89151094,8.88843888,3.35469675,
54.7010,9.5880,-1.1194,-6.4366,9.89151094,8.88843888,3.35469675,
54.7100,9.5880,-1.1194,-6.4366,9.89151094,8.88843888,3.35469675,
54.7120,9.5880,-1.1194,-6.4366,9.89151094,8.88843888,3.35469675,
54.7140,9.6119,-1.1854,-6.1197,9.89151094,8.88843888,3.35469675,
54.7200,9.6119,-1.1854,-6.1197,9.89151094,8.88843888,3.35469675,
54.7210,9.6119,-1.1854,-6.1197,9.89151094,8.88843888,3.35469675,
54.7300,9.6119,-1.1854,-6.1197,9.89151094,8.88843888,3.35469675,
54.7320,9.6119,-1.1854,-6.1197,9.89151094,8.88843888,3.35469675,
54.7340,9.6658,0.2555,-5.9814,9.89151094,8.88843888,3.35469675,
54.7400,9.6658,0.2555,-5.9814,9.89151094,8.88843888,3.35469675,
54.7410,9.6658,0.2555,-5.9814,9.89151094,8.88843888,3.35469675,
54.7500,9.6658,0.2555,-5.9814,9.89151094,8.88843888,3.35469675,
54.7530,9.6658,0.2555,-5.9814,9.89151094,8.88843888,3.35469675,
54.7540,10.3826,2.8101,-7.2778,9.89151094,8.88843888,3.35469675,
54.7610,10.3826,2.8101,-7.2778,9.89151094,8.88843888,3.35469675,
54.7630,10.3826,2.8101,-7.2778,9.89151094,8.88843888,3.35469675,
54.7700,10.3826,2.8101,-7.2778,9.89151094,8.88843888,3.35469675,
54.7710,10.3826,2.8101,-7.2778,9.89151094,8.88843888,3.35469675,
54.7730,13.7147,5.3209,-10.5619,9.89151094,8.88843888,3.35469675,
54.7840,13.7147,5.3209,-10.5619,9.89151094,8.88843888,3.35469675,
54.7850,13.7147,5.3209,-10.5619,9.89151094,8.88843888,3.35469675,
54.7900,13.7147,5.3209,-10.5619,9.89151094,8.88843888,3.35469675,
54.7910,13.7147,5.3209,-10.5619,9.89151094,8.88843888,3.35469675,
54.7940,17.5751,5.7679,-13.4073,9.89151094,8.88843888,3.35469675,
54.8000,17.5751,5.7679,-13.4073,9.89151094,8.88843888,3.35469675,
54.8020,17.5751,5.7679,-13.4073,9.89151094,8.88843888,3.35469675,
54.8100,17.5751,5.7679,-13.4073,9.89151094,8.88843888,3.35469675,
54.8130,17.5751,5.7679,-13.4073,9.89151094,8.88843888,3.35469675,
54.8150,18.1450,3.8633,-10.6821,9.89151094,8.88843888,3.35469675,
54.8200,18.1450,3.8633,-10.6821,9.89151094,8.88843888,3.35469675,
54.8210,18.1450,3.8633,-10.6821,9.89151094,8.88843888,3.35469675,
54.8300,18.1450,3.8633,-10.6821,9.89151094,8.88843888,3.35469675,
54.8320,18.1450,3.8633,-10.6821,9.89151094,8.88843888,3.35469675,
54.8330,15.7628,1.2855,-4.8541,9.89151094,8.88843888,3.35469675,
54.8400,15.7628,1.2855,-4.8541,9.89151094,8.88843888,3.35469675,
54.8410,15.7628,1.2855,-4.8541,9.89151094,8.88843888,3.35469675,
54.8520,15.7628,1.2855,-4.8541,9.89151094,8.88843888,3.35469675,
54.8530,15.7628,1.2855,-4.8541,9.89151094,8.88843888,3.35469675,
54.8540,11.0413,0.0220,1.1155,9.89151094,8.88843888,3.35469675,
54.8600,11.0413,0.0220,1.1155,9.89151094,8.88843888,3.35469675,
54.8630,11.0413,0.0220,1.1155,9.89151094,8.88843888,3.35469675,
54.8700,11.0413,0.0220,1.1155,9.89151094,8.88843888,3.35469675,
54.8710,11.0413,0.0220,1.1155,9.89151094,8.88843888,3.35469675,
54.8730,8.2215,-0.0501,7.3119,9.89151094,8.88843888,3.35469675,
54.8800,8.2215,-0.0501,7.3119,9.89151094,8.88843888,3.35469675,
54.8820,8.2215,-0.0501,7.3119,9.89151094,8.88843888,3.35469675,
54.8900,8.2215,-0.0501,7.3119,9.89151094,8.88843888,3.35469675,
54.8910,8.2215,-0.0501,7.3119,9.89151094,8.88843888,3.35469675,
54.8930,8.8253,-1.3627,12.5600,9.89151094,8.88843888,3.35469675,
54.9000,8.8253,-1.3627,12.5600,9.89151094,8.88843888,3.35469675,
54.9010,8.8253,-1.3627,12.5600,9.89151094,8.88843888,3.35469675,
54.9100,8.8253,-1.3627,12.5600,9.89151094,8.88843888,3.35469675,
54.9110,8.8253,-1.3627,12.5600,9.89151094,8.88843888,3.35469675,
54.9140,7.8716,1.7719,9.6464,9.89151094,8.88843888,3.35469675,
54.9200,7.8716,1.7719,9.6464,9.89151094,8.88843888,3.35469675,
54.9220,7.8716,1.7719,9.6464,9.89151094,8.88843888,3.35469675,
54.9320,7.8716,1.7719,9.6464,9.89151094,8.88843888,3.35469675,
54.9340,7.8716,1.7719,9.6464,9.89151094,8.88843888,3.35469675,
54.9350,0.6599,4.7830,11.4754,9.89151094,8.88843888,3.35469675,
54.9400,0.6599,4.7830,11.4754,9.89151094,8.88843888,3.35469675,
54.9410,0.6599,4.7830,11.4754,9.89151094,8.88843888,3.35469675,
54.9500,0.6599,4.7830,11.4754,9.89151094,8.88843888,3.35469675,
54.9530,0.6599,4.7830,11.4754,9.89151094,8.88843888,3.35469675,
54.9540,-2.9655,3.7761,12.2095,9.89151094,8.88843888,3.35469675,
54.9600,-2.9655,3.7761,12.2095,9.89151094,8.88843888,3.35469675,
54.9610,-2.9655,3.7761,12.2095,9.89151094,8.88843888,3.35469675,
54.9700,-2.9655,3.7761,12.2095,9.89151094,8.88843888,3.35469675,
54.9720,-2.9655,3.7761,12.2095,9.89151094,8.88843888,3.35469675,
54.9740,-3.7515,0.4472,5.3361,9.89151094,8.88843888,3.35469675,
54.9800,-3.7515,0.4472,5.3361,9.89151094,8.88843888,3.35469675,
54.9820,-3.7515,0.4472,5.3361,9.89151094,8.88843888,3.35469675,
54.9900,-3.7515,0.4472,5.3361,9.89151094,8.88843888,3.35469675,
54.9910,-3.7515,0.4472,5.3361,9.89151094,8.88843888,3.35469675,
54.9930,-5.5372,-2.0069,1.0825,9.89151094,8.88843888,3.35469675,
55.0000,-5.5372,-2.0069,1.0825,9.89151094,8.88843888,3.35469675,
55.0010,-5.5372,-2.0069,1.0825,9.89151094,8.88843888,3.35469675,
55.0100,-5.5372,-2.0069,1.0825,9.89151094,8.88843888,3.35469675,
55.0110,-5.5372,-2.0069,1.0825,9.89151094,8.88843888,3.35469675,
55.0130,-8.5451,-4.8920,0.7882,9.89151094,8.88843888,3.35469675,
55.0200,-8.5451,-4.8920,0.7882,9.89151094,8.88843888,3.35469675,
55.0220,-8.5451,-4.8920,0.7882,9.89151094,8.88843888,3.35469675,
55.0300,-8.5451,-4.8920,0.7882,9.89151094,8.88843888,3.35469675,
55.0330,-8.5451,-4.8920,0.7882,9.89151094,8.88843888,3.35469675,
55.0350,-11.2207,-8.1333,2.8285,9.89151094,8.88843888,3.35469675,
55.0400,-11.2207,-8.1333,2.8285,9.89151094,8.88843888,3.35469675,
55.0420,-11.2207,-8.1333,2.8285,9.89151094,8.88843888,3.35469675,
55.0580,-11.2207,-8.1333,2.8285,9.89151094,8.88843888,3.35469675,
55.0590,-11.2207,-8.1333,2.8285,9.89151094,8.88843888,3.35469675,
55.0600,-12.4059,-10.9845,4.9614,9.89151094,8.88843888,3.35469675,
55.0610,-12.4059,-10.9845,4.9614,9.89151094,8.88843888,3.35469675,
55.0620,-12.4059,-10.9845,4.9614,9.89151094,8.88843888,3.35469675,
55.0750,-12.4059,-10.9845,4.9614,9.89151094,8.88843888,3.35469675,
55.0760,-12.4059,-10.9845,4.9614,9.89151094,8.88843888,3.35469675,
55.0760,-15.7870,-9.7808,6.5487,9.89151094,8.88843888,3.35469675,
55.0800,-15.7870,-9.7808,6.5487,9.89151094,8.88843888,3.35469675,
55.0810,-15.7870,-9.7808,6.5487,9.89151094,8.88843888,3.35469675,
55.0900,-15.7870,-9.7808,6.5487,9.89151094,8.88843888,3.35469675,
55.0920,-15.7870,-9.7808,6.5487,9.89151094,8.88843888,3.35469675,
55.0950,-18.8659,-6.0995,3.9101,9.89151094,8.88843888,3.35469675,
55.1000,-18.8659,-6.0995,3.9101,9.89151094,8.88843888,3.35469675,
55.1020,-18.8659,-6.0995,3.9101,9.89151094,8.88843888,3.35469675,
55.1100,-18.8659,-6.0995,3.9101,9.89151094,8.88843888,3.35469675,
55.1110,-18.8659,-6.0995,3.9101,9.89151094,8.88843888,3.35469675,
55.1140,-19.3269,-2.7768,-2.2860,9.89151094,8.88843888,3.35469675,
55.1200,-19.3269,-2.7768,-2.2860,9.89151094,8.88843888,3.35469675,
55.1210,-19.3269,-2.7768,-2.2860,9.89151094,8.88843888,3.35469675,
55.1300,-19.3269,-2.7768,-2.2860,9.89151094,8.88843888,3.35469675,
55.1310,-19.3269,-2.7768,-2.2860,9.89151094,8.88843888,3.35469675,
55.1340,-18.5852,-0.6044,-7.6949,9.89151094,8.88843888,3.35469675,
55.1400,-18.5852,-0.6044,-7.6949,9.89151094,8.88843888,3.35469675,
55.1410,-18.5852,-0.6044,-7.6949,9.89151094,8.88843888,3.35469675,
55.1500,-18.5852,-0.6044,-7.6949,9.89151094,8.88843888,3.35469675,
55.1520,-18.5852,-0.6044,-7.6949,9.89151094,8.88843888,3.35469675,
55.1540,-16.1761,-1.0565,-8.9730,9.89151094,8.88843888,3.35469675,
55.1600,-16.1761,-1.0565,-8.9730,9.89151094,8.88843888,3.35469675,
55.1610,-16.1761,-1.0565,-8.9730,9.89151094,8.88843888,3.35469675,
55.1700,-16.1761,-1.0565,-8.9730,9.89151094,8.88843888,3.35469675,
55.1720,-16.1761,-1.0565,-8.9730,9.89151094,8.88843888,3.35469675,
55.1730,-13.1492,-2.0086,-3.9554,9.89151094,8.88843888,3.35469675,
55.1800,-13.1492,-2.0086,-3.9554,9.89151094,8.88843888,3.35469675,
55.1810,-13.1492,-2.0086,-3.9554,9.89151094,8.88843888,3.35469675,
55.1900,-13.1492,-2.0086,-3.9554,9.89151094,8.88843888,3.35469675,
55.1910,-13.1492,-2.0086,-3.9554,9.89151094,8.88843888,3.35469675,
55.1930,-9.2403,-2.0335,5.9817,9.89151094,8.88843888,3.35469675,
55.1990,-9.2403,-2.0335,5.9817,9.89151094,8.88843888,3.35469675,
55.2120,-9.2403,-2.0335,5.9817,9.89151094,8.88843888,3.35469675,
55.2140,-9.2403,-2.0335,5.9817,9.89151094,8.88843888,3.35469675,
55.2150,-9.2403,-2.0335,5.9817,9.89151094,8.88843888,3.35469675,
55.2160,-4.9520,-2.4988,11.9738,9.89151094,8.88843888,3.35469675,
55.2210,-4.9520,-2.4988,11.9738,9.89151094,8.88843888,3.35469675,
55.2220,-4.9520,-2.4988,11.9738,9.89151094,8.88843888,3.35469675,
55.2300,-4.9520,-2.4988,11.9738,9.89151094,8.88843888,3.35469675,
55.2310,-4.9520,-2.4988,11.9738,9.89151094,8.88843888,3.35469675,
55.2330,-2.1276,-1.9314,15.4697,9.89151094,8.88843888,3.35469675,
55.2420,-2.1276,-1.9314,15.4697,9.89151094,8.88843888,3.35469675,
55.2450,-2.1276,-1.9314,15.4697,9.89151094,8.88843888,3.35469675,
55.2500,-2.1276,-1.9314,15.4697,9.89151094,8.88843888,3.35469675,
55.2550,-2.1276,-1.9314,15.4697,9.89151094,8.88843888,3.35469675,
55.2570,-0.2778,-4.5651,18.1699,9.89151094,8.88843888,3.35469675,
55.2600,-0.2778,-4.5651,18.1699,9.89151094,8.88843888,3.35469675,
55.2620,-0.2778,-4.5651,18.1699,9.89151094,8.88843888,3.35469675,
55.2720,-0.2778,-4.5651,18.1699,9.89151094,8.88843888,3.35469675,
55.2750,-0.2778,-4.5651,18.1699,9.89151094,8.88843888,3.35469675,
55.2760,1.2016,-9.3134,20.8486,9.89151094,8.88843888,3.35469675,
55.2800,1.2016,-9.3134,20.8486,9.89151094,8.88843888,3.35469675,
55.2810,1.2016,-9.3134,20.8486,9.89151094,8.88843888,3.35469675,
55.2900,1.2016,-9.3134,20.8486,9.89151094,8.88843888,3.35469675,
55.2920,1.2016,-9.3134,20.8486,9.89151094,8.88843888,3.35469675,
55.2930,4.5105,-10.3965,21.5910,9.89151094,8.88843888,3.35469675,
55.3000,4.5105,-10.3965,21.5910,9.89151094,8.88843888,3.35469675,
55.3010,4.5105,-10.3965,21.5910,9.89151094,8.88843888,3.35469675,
55.3130,4.5105,-10.3965,21.5910,9.89151094,8.88843888,3.35469675,
55.3140,4.5105,-10.3965,21.5910,9.89151094,8.88843888,3.35469675,
55.3150,7.9377,-7.5204,15.9467,9.89151094,8.88843888,3.35469675,
55.3200,7.9377,-7.5204,15.9467,9.89151094,8.88843888,3.35469675,
55.3290,7.9377,-7.5204,15.9467,9.89151094,8.88843888,3.35469675,
55.3300,7.9377,-7.5204,15.9467,9.89151094,8.88843888,3.35469675,
55.3320,7.9377,-7.5204,15.9467,9.89151094,8.88843888,3.35469675,
55.3350,9.0352,-3.4736,6.3030,9.89151094,8.88843888,3.35469675,
55.3400,9.0352,-3.4736,6.3030,9.89151094,8.88843888,3.35469675,
55.3420,9.0352,-3.4736,6.3030,9.89151094,8.88843888,3.35469675,
55.3500,9.0352,-3.4736,6.3030,9.89151094,8.88843888,3.35469675,
55.3530,9.0352,-3.4736,6.3030,9.89151094,8.88843888,3.35469675,
55.3540,8.2484,-0.3339,-0.1180,9.89151094,8.88843888,3.35469675,
55.3600,8.2484,-0.3339,-0.1180,9.89151094,8.88843888,3.35469675,
55.3610,8.2484,-0.3339,-0.1180,9.89151094,8.88843888,3.35469675,
55.3700,8.2484,-0.3339,-0.1180,9.89151094,8.88843888,3.35469675,
55.3730,8.2484,-0.3339,-0.1180,9.89151094,8.88843888,3.35469675,
55.3750,7.8550,1.4682,-3.0722,9.89151094,8.88843888,3.35469675,
55.3800,7.8550,1.4682,-3.0722,9.89151094,8.88843888,3.35469675,
55.3820,7.8550,1.4682,-3.0722,9.89151094,8.88843888,3.35469675,
55.3900,7.8550,1.4682,-3.0722,9.89151094,8.88843888,3.35469675,
55.3920,7.8550,1.4682,-3.0722,9.89151094,8.88843888,3.35469675,
55.3940,8.0463,2.4544,-4.2146,9.89151094,8.88843888,3.35469675,
55.4000,8.0463,2.4544,-4.2146,9.89151094,8.88843888,3.35469675,
55.4010,8.0463,2.4544,-4.2146,9.89151094,8.88843888,3.35469675,
55.4100,8.0463,2.4544,-4.2146,9.89151094,8.88843888,3.35469675,
55.4120,8.0463,2.4544,-4.2146,9.89151094,8.88843888,3.35469675,
55.4130,8.3801,4.0630,-5.0665,9.89151094,8.88843888,3.35469675,
55.4200,8.3801,4.0630,-5.0665,9.89151094,8.88843888,3.35469675,
55.4220,8.3801,4.0630,-5.0665,9.89151094,8.88843888,3.35469675,
55.4320,8.3801,4.0630,-5.0665,9.89151094,8.88843888,3.35469675,
55.4340,8.3801,4.0630,-5.0665,9.89151094,8.88843888,3.35469675,
55.4360,8.8672,6.2070,-5.6285,9.89151094,8.88843888,3.35469675,
55.4440,8.8672,6.2070,-5.6285,9.89151094,8.88843888,3.35469675,
55.4460,8.8672,6.2070,-5.6285,9.89151094,8.88843888,3.35469675,
55.4800,8.8672,6.2070,-5.6285,9.89151094,8.88843888,3.35469675,
55.4810,8.8672,6.2070,-5.6285,9.89151094,8.88843888,3.35469675,
55.4820,10.3370,8.0845,-6.6772,9.89151094,8.88843888,3.35469675,
55.4840,10.3370,8.0845,-6.6772,9.89151094,8.88843888,3.35469675,
55.4850,10.3370,8.0845,-6.6772,9.89151094,8.88843888,3.35469675,
55.4850,10.3370,8.0845,-6.6772,9.89151094,8.88843888,3.35469675,
55.4860,10.3370,8.0845,-6.6772,9.89151094,8.88843888,3.35469675,
55.4870,10.9133,9.1589,-6.7719,9.89151094,8.88843888,3.35469675,
55.4890,10.9133,9.1589,-6.7719,9.89151094,8.88843888,3.35469675,
55.4890,10.9133,9.1589,-6.7719,9.89151094,8.88843888,3.35469675,
55.4900,10.9133,9.1589,-6.7719,9.89151094,8.88843888,3.35469675,
55.4930,10.9133,9.1589,-6.7719,9.89151094,8.88843888,3.35469675,
55.4950,10.2932,10.0455,-6.7193,9.89151094,8.88843888,3.35469675,
55.5230,10.2932,10.0455,-6.7193,9.89151094,8.88843888,3.35469675,
55.5230,10.2932,10.0455,-6.7193,9.89151094,8.88843888,3.35469675,
55.5240,10.2932,10.0455,-6.7193,9.89151094,8.88843888,3.35469675,
55.5250,10.2932,10.0455,-6.7193,9.89151094,8.88843888,3.35469675,
55.5260,9.0874,9.7488,-5.0045,9.89151094,8.88843888,3.35469675,
55.5270,9.0874,9.7488,-5.0045,9.89151094,8.88843888,3.35469675,
55.5280,9.0874,9.7488,-5.0045,9.89151094,8.88843888,3.35469675,
55.5300,9.0874,9.7488,-5.0045,9.89151094,8.88843888,3.35469675,
55.5330,9.0874,9.7488,-5.0045,9.89151094,8.88843888,3.35469675,
55.5340,8.3470,8.8075,-0.5488,9.89151094,8.88843888,3.35469675,
55.5610,8.3470,8.8075,-0.5488,9.89151094,8.88843888,3.35469675,
55.5630,8.3470,8.8075,-0.5488,9.89151094,8.88843888,3.35469675,
55.5640,8.3470,8.8075,-0.5488,9.89151094,8.88843888,3.35469675,
55.5640,8.3470,8.8075,-0.5488,9.89151094,8.88843888,3.35469675,
55.5640,9.2714,5.8426,8.3300,9.89151094,8.88843888,3.35469675,
55.5650,9.2714,5.8426,8.3300,9.89151094,8.88843888,3.35469675,
55.5660,9.2714,5.8426,8.3300,9.89151094,8.88843888,3.35469675,
55.5880,9.2714,5.8426,8.3300,9.89151094,8.88843888,3.35469675,
55.5890,9.2714,5.8426,8.3300,9.89148040,8.88843031,3.70788693,
55.5900,12.6984,2.7160,21.8534,9.89148040,8.88843031,3.70788693,
55.5910,12.6984,2.7160,21.8534,9.89148040,8.88843031,3.70788693,
55.5910,12.6984,2.7160,21.8534,9.89148040,8.88843031,3.70788693,
55.5920,12.6984,2.7160,21.8534,9.89148040,8.88843031,3.70788693,
55.5930,12.6984,2.7160,21.8534,9.89148040,8.88843031,3.70788693,
55.5930,9.2948,1.7303,24.3326,9.89148040,8.88843031,3.70788693,
55.6000,9.2948,1.7303,24.3326,9.89148040,8.88843031,3.70788693,
55.6020,9.2948,1.7303,24.3326,9.89148040,8.88843031,3.70788693,
55.6110,9.2948,1.7303,24.3326,9.89148040,8.88843031,3.70788693,
55.6130,9.2948,1.7303,24.3326,9.89148040,8.88843031,3.70788693,
55.6140,5.3252,2.7915,21.9017,9.89148040,8.88843031,3.70788693,
55.6200,5.3252,2.7915,21.9017,9.89148040,8.88843031,3.70788693,
55.6210,5.3252,2.7915,21.9017,9.89148040,8.88843031,3.70788693,
55.6300,5.3252,2.7915,21.9017,9.89148040,8.88843031,3.70788693,
55.6310,5.3252,2.7915,21.9017,9.89148040,8.88843031,3.70788693,
55.6330,-0.9217,2.9449,21.6510,9.89148040,8.88843031,3.70788693,
55.6400,-0.9217,2.9449,21.6510,9.89148040,8.88843031,3.70788693,
55.6410,-0.9217,2.9449,21.6510,9.89148040,8.88843031,3.70788693,
55.6500,-0.9217,2.9449,21.6510,9.89148040,8.88843031,3.70788693,
55.6520,-0.9217,2.9449,21.6510,9.89148040,8.88843031,3.70788693,
55.6540,-2.7906,-4.0298,21.3040,9.89148040,8.88843031,3.70788693,
55.6590,-2.7906,-4.0298,21.3040,9.89148040,8.88843031,3.70788693,
55.6620,-2.7906,-4.0298,21.3040,9.89148040,8.88843031,3.70788693,
55.6700,-2.7906,-4.0298,21.3040,9.89148040,8.88843031,3.70788693,
55.6710,-2.7906,-4.0298,21.3040,9.89148040,8.88843031,3.70788693,
55.6730,-8.5488,-6.9364,13.4844,9.89148040,8.88843031,3.70788693,
55.6800,-8.5488,-6.9364,13.4844,9.89148040,8.88843031,3.70788693,
55.6810,-8.5488,-6.9364,13.4844,9.89148040,8.88843031,3.70788693,
55.6900,-8.5488,-6.9364,13.4844,9.89148040,8.88843031,3.70788693,
55.6910,-8.5488,-6.9364,13.4844,9.89148040,8.88843031,3.70788693,
55.6940,-15.7508,-3.8626,0.6264,9.89148040,8.88843031,3.70788693,
55.7050,-15.7508,-3.8626,0.6264,9.89148040,8.88843031,3.70788693,
55.7060,-15.7508,-3.8626,0.6264,9.89148040,8.88843031,3.70788693,
55.7100,-15.7508,-3.8626,0.6264,9.89148040,8.88843031,3.70788693,
55.7140,-15.7508,-3.8626,0.6264,9.89148040,8.88843031,3.70788693,
55.7160,-18.4774,-3.2126,-7.5364,9.89148040,8.88843031,3.70788693,
55.7200,-18.4774,-3.2126,-7.5364,9.89148040,8.88843031,3.70788693,
55.7210,-18.4774,-3.2126,-7.5364,9.89148040,8.88843031,3.70788693,
55.7300,-18.4774,-3.2126,-7.5364,9.89148040,8.88843031,3.70788693,
55.7330,-18.4774,-3.2126,-7.5364,9.89148040,8.88843031,3.70788693,
55.7340,-17.2340,-6.6436,-9.6860,9.89148040,8.88843031,3.70788693,
55.7400,-17.2340,-6.6436,-9.6860,9.89148040,8.88843031,3.70788693,
55.7410,-17.2340,-6.6436,-9.6860,9.89148040,8.88843031,3.70788693,
55.7500,-17.2340,-6.6436,-9.6860,9.89148040,8.88843031,3.70788693,
55.7520,-17.2340,-6.6436,-9.6860,9.89148040,8.88843031,3.70788693,
55.7530,-14.2951,-9.7569,-9.8165,9.89148040,8.88843031,3.70788693,
55.7590,-14.2951,-9.7569,-9.8165,9.89148040,8.88843031,3.70788693,
55.7610,-14.2951,-9.7569,-9.8165,9.89148040,8.88843031,3.70788693,
55.7700,-14.2951,-9.7569,-9.8165,9.89148040,8.88843031,3.70788693,
55.7710,-14.2951,-9.7569,-9.8165,9.89148040,8.88843031,3.70788693,
55.7730,-11.8442,-11.9522,-12.3223,9.89148040,8.88843031,3.70788693,
55.7870,-11.8442,-11.9522,-12.3223,9.89148040,8.88843031,3.70788693,
55.7890,-11.8442,-11.9522,-12.3223,9.89148040,8.88843031,3.70788693,
55.7900,-11.8442,-11.9522,-12.3223,9.89148040,8.88843031,3.70788693,
55.7920,-11.8442,-11.9522,-12.3223,9.89148040,8.88843031,3.70788693,
55.7930,-11.1846,-11.7406,-15.0726,9.89148040,8.88843031,3.70788693,
55.8000,-11.1846,-11.7406,-15.0726,9.89148040,8.88843031,3.70788693,
55.8020,-11.1846,-11.7406,-15.0726,9.89148040,8.88843031,3.70788693,
55.8100,-11.1846,-11.7406,-15.0726,9.89148040,8.88843031,3.70788693,
55.8110,-11.1846,-11.7406,-15.0726,9.89148040,8.88843031,3.70788693,
55.8150,-10.4130,-9.1671,-17.3772,9.89148040,8.88843031,3.70788693,
55.8200,-10.4130,-9.1671,-17.3772,9.89148040,8.88843031,3.70788693,
55.8210,-10.4130,-9.1671,-17.3772,9.89148040,8.88843031,3.70788693,
55.8300,-10.4130,-9.1671,-17.3772,9.89148040,8.88843031,3.70788693,
55.8400,-10.4130,-9.1671,-17.3772,9.89148040,8.88843031,3.70788693,
55.8410,-10.0816,-6.2289,-18.7951,9.89148040,8.88843031,3.70788693,
55.8420,-10.0816,-6.2289,-18.7951,9.89148040,8.88843031,3.70788693,
55.8430,-10.0816,-6.2289,-18.7951,9.89148040,8.88843031,3.70788693,
55.8500,-10.0816,-6.2289,-18.7951,9.89148040,8.88843031,3.70788693,
55.8520,-10.0816,-6.2289,-18.7951,9.89148040,8.88843031,3.70788693,
55.8530,-10.9292,-4.5810,-16.3162,9.89148040,8.88843031,3.70788693,
55.8610,-10.9292,-4.5810,-16.3162,9.89148040,8.88843031,3.70788693,
55.8610,-10.9292,-4.5810,-16.3162,9.89148040,8.88843031,3.70788693,
55.8710,-10.9292,-4.5810,-16.3162,9.89148040,8.88843031,3.70788693,
55.8730,-10.9292,-4.5810,-16.3162,9.89148040,8.88843031,3.70788693,
55.8740,-14.5971,-2.2619,-7.9826,9.89148040,8.88843031,3.70788693,
55.8800,-14.5971,-2.2619,-7.9826,9.89148040,8.88843031,3.70788693,
55.8820,-14.5971,-2.2619,-7.9826,9.89148040,8.88843031,3.70788693,
55.8910,-14.5971,-2.2619,-7.9826,9.89148040,8.88843031,3.70788693,
55.8920,-14.5971,-2.2619,-7.9826,9.89148040,8.88843031,3.70788693,
55.8940,-15.7343,1.3150,3.0536,9.89148040,8.88843031,3.70788693,
55.9010,-15.7343,1.3150,3.0536,9.89148040,8.88843031,3.70788693,
55.9020,-15.7343,1.3150,3.0536,9.89148040,8.88843031,3.70788693,
55.9100,-15.7343,1.3150,3.0536,9.89148040,8.88843031,3.70788693,
55.9110,-15.7343,1.3150,3.0536,9.89148040,8.88843031,3.70788693,
55.9140,-10.2192,4.6198,4.8703,9.89148040,8.88843031,3.70788693,
55.9200,-10.2192,4.6198,4.8703,9.89148040,8.88843031,3.70788693,
55.9210,-10.2192,4.6198,4.8703,9.89148040,8.88843031,3.70788693,
55.9320,-10.2192,4.6198,4.8703,9.89148040,8.88843031,3.70788693,
55.9330,-10.2192,4.6198,4.8703,9.89148040,8.88843031,3.70788693,
55.9360,-4.5918,8.8339,-1.6175,9.89148040,8.88843031,3.70788693,
55.9410,-4.5918,8.8339,-1.6175,9.89148040,8.88843031,3.70788693,
55.9420,-4.5918,8.8339,-1.6175,9.89148040,8.88843031,3.70788693,
55.9500,-4.5918,8.8339,-1.6175,9.89148040,8.88843031,3.70788693,
55.9600,-4.5918,8.8339,-1.6175,9.89148040,8.88843031,3.70788693,
55.9610,-3.6389,9.6918,-1.2774,9.89148040,8.88843031,3.70788693,
55.9620,-3.6389,9.6918,-1.2774,9.89148040,8.88843031,3.70788693,
55.9620,-3.6389,9.6918,-1.2774,9.89148040,8.88843031,3.70788693,
55.9700,-3.6389,9.6918,-1.2774,9.89148040,8.88843031,3.70788693,
55.9710,-3.6389,9.6918,-1.2774,9.89148040,8.88843031,3.70788693,
55.9740,-5.3199,3.1104,9.3122,9.89148040,8.88843031,3.70788693,
55.9800,-5.3199,3.1104,9.3122,9.89148040,8.88843031,3.70788693,
55.9820,-5.3199,3.1104,9.3122,9.89148040,8.88843031,3.70788693,
55.9900,-5.3199,3.1104,9.3122,9.89148040,8.88843031,3.70788693,
55.9910,-5.3199,3.1104,9.3122,9.89148040,8.88843031,3.70788693,
55.9940,-1.6683,-1.3482,13.2806,9.89148040,8.88843031,3.70788693,
56.0000,-1.6683,-1.3482,13.2806,9.89148040,8.88843031,3.70788693,
56.0030,-1.6683,-1.3482,13.2806,9.89148040,8.88843031,3.70788693,
56.0100,-1.6683,-1.3482,13.2806,9.89148040,8.88843031,3.70788693,
56.0110,-1.6683,-1.3482,13.2806,9.89148040,8.88843031,3.70788693,
56.0130,3.9035,-0.6288,10.4493,9.89148040,8.88843031,3.70788693,
56.0200,3.9035,-0.6288,10.4493,9.89148040,8.88843031,3.70788693,
56.0220,3.9035,-0.6288,10.4493,9.89148040,8.88843031,3.70788693,
56.0300,3.9035,-0.6288,10.4493,9.89148040,8.88843031,3.70788693,
56.0310,3.9035,-0.6288,10.4493,9.89148040,8.88843031,3.70788693,
56.0330,6.7527,1.3375,4.3348,9.89148040,8.88843031,3.70788693,
56.0400,6.7527,1.3375,4.3348,9.89148040,8.88843031,3.70788693,
56.0430,6.7527,1.3375,4.3348,9.89148040,8.88843031,3.70788693,
56.0500,6.7527,1.3375,4.3348,9.89148040,8.88843031,3.70788693,
56.0540,6.7527,1.3375,4.3348,9.89148040,8.88843031,3.70788693,
56.0560,6.9492,3.3696,1.1098,9.89148040,8.88843031,3.70788693,
56.0600,6.9492,3.3696,1.1098,9.89148040,8.88843031,3.70788693,
56.0620,6.9492,3.3696,1.1098,9.89148040,8.88843031,3.70788693,
56.0710,6.9492,3.3696,1.1098,9.89148040,8.88843031,3.70788693,
56.0740,6.9492,3.3696,1.1098,9.89148040,8.88843031,3.70788693,
56.0760,6.8091,4.9626,1.7589,9.89148040,8.88843031,3.70788693,
56.0800,6.8091,4.9626,1.7589,9.89148040,8.88843031,3.70788693,
56.0820,6.8091,4.9626,1.7589,9.89148040,8.88843031,3.70788693,
56.0900,6.8091,4.9626,1.7589,9.89148040,8.88843031,3.70788693,
56.0940,6.8091,4.9626,1.7589,9.89148040,8.88843031,3.70788693,
56.0950,7.8038,6.0435,4.0674,9.89148040,8.88843031,3.70788693,
56.1000,7.8038,6.0435,4.0674,9.89148040,8.88843031,3.70788693,
56.1020,7.8038,6.0435,4.0674,9.89148040,8.88843031,3.70788693,
56.1100,7.8038,6.0435,4.0674,9.89148040,8.88843031,3.70788693,
56.1130,7.8038,6.0435,4.0674,9.89148040,8.88843031,3.70788693,
56.1140,9.6076,7.2069,4.4101,9.89148040,8.88843031,3.70788693,
56.1220,9.6076,7.2069,4.4101,9.89148040,8.88843031,3.70788693,
56.1240,9.6076,7.2069,4.4101,9.89148040,8.88843031,3.70788693,
56.1300,9.6076,7.2069,4.4101,9.89148040,8.88843031,3.70788693,
56.1320,9.6076,7.2069,4.4101,9.89148040,8.88843031,3.70788693,
56.1330,11.2397,9.3356,3.3829,9.89148040,8.88843031,3.70788693,
56.1400,11.2397,9.3356,3.3829,9.89148040,8.88843031,3.70788693,
56.1420,11.2397,9.3356,3.3829,9.89148040,8.88843031,3.70788693,
56.1500,11.2397,9.3356,3.3829,9.89148040,8.88843031,3.70788693,
56.1520,11.2397,9.3356,3.3829,9.89148040,8.88843031,3.70788693,
56.1540,12.0346,9.3114,4.6232,9.89148040,8.88843031,3.70788693,
56.1600,12.0346,9.3114,4.6232,9.89148040,8.88843031,3.70788693,
56.1620,12.0346,9.3114,4.6232,9.89148040,8.88843031,3.70788693,
56.1700,12.0346,9.3114,4.6232,9.89148040,8.88843031,3.70788693,
56.1730,12.0346,9.3114,4.6232,9.89148040,8.88843031,3.70788693,
56.1750,11.4899,6.5433,6.9314,9.89148040,8.88843031,3.70788693,
56.1800,11.4899,6.5433,6.9314,9.89148040,8.88843031,3.70788693,
56.1820,11.4899,6.5433,6.9314,9.89148040,8.88843031,3.70788693,
56.1900,11.4899,6.5433,6.9314,9.89148040,8.88843031,3.70788693,
56.1920,11.4899,6.5433,6.9314,9.89148040,8.88843031,3.70788693,
56.1930,7.7978,3.6477,10.3397,9.89148040,8.88843031,3.70788693,
56.2000,7.7978,3.6477,10.3397,9.89148040,8.88843031,3.70788693,
56.2020,7.7978,3.6477,10.3397,9.89148040,8.88843031,3.70788693,
56.2100,7.7978,3.6477,10.3397,9.89148040,8.88843031,3.70788693,
56.2130,7.7978,3.6477,10.3397,9.89148040,8.88843031,3.70788693,
56.2140,4.1579,-0.3835,17.8591,9.89148040,8.88843031,3.70788693,
56.2200,4.1579,-0.3835,17.8591,9.89148040,8.88843031,3.70788693,
56.2220,4.1579,-0.3835,17.8591,9.89148040,8.88843031,3.70788693,
56.2300,4.1579,-0.3835,17.8591,9.89148040,8.88843031,3.70788693,
56.2330,4.1579,-0.3835,17.8591,9.89148040,8.88843031,3.70788693,
56.2340,-1.5868,-1.9276,17.4723,9.89148040,8.88843031,3.70788693,
56.2410,-1.5868,-1.9276,17.4723,9.89148040,8.88843031,3.70788693,
56.2440,-1.5868,-1.9276,17.4723,9.89148040,8.88843031,3.70788693,
56.2500,-1.5868,-1.9276,17.4723,9.89148040,8.88843031,3.70788693,
56.2530,-1.5868,-1.9276,17.4723,9.89148040,8.88843031,3.70788693,
56.2550,-7.7747,0.8979,8.8630,9.89148040,8.88843031,3.70788693,
56.2600,-7.7747,0.8979,8.8630,9.89148040,8.88843031,3.70788693,
56.2620,-7.7747,0.8979,8.8630,9.89148040,8.88843031,3.70788693,
56.2700,-7.7747,0.8979,8.8630,9.89148040,8.88843031,3.70788693,
56.2710,-7.7747,0.8979,8.8630,9.89148040,8.88843031,3.70788693,
56.2730,-7.2359,4.4545,7.3621,9.89148040,8.88843031,3.70788693,
56.2800,-7.2359,4.4545,7.3621,9.89148040,8.88843031,3.70788693,
56.2820,-7.2359,4.4545,7.3621,9.89148040,8.88843031,3.70788693,
56.2910,-7.2359,4.4545,7.3621,9.89148040,8.88843031,3.70788693,
56.2930,-7.2359,4.4545,7.3621,9.89148040,8.88843031,3.70788693,
56.2940,-4.5162,-0.0515,12.6037,9.89148040,8.88843031,3.70788693,
56.3000,-4.5162,-0.0515,12.6037,9.89148040,8.88843031,3.70788693,
56.3010,-4.5162,-0.0515,12.6037,9.89148040,8.88843031,3.70788693,
56.3100,-4.5162,-0.0515,12.6037,9.89148040,8.88843031,3.70788693,
56.3120,-4.5162,-0.0515,12.6037,9.89148040,8.88843031,3.70788693,
56.3130,-3.0256,-5.7218,8.0571,9.89148040,8.88843031,3.70788693,
56.3200,-3.0256,-5.7218,8.0571,9.89148040,8.88843031,3.70788693,
56.3210,-3.0256,-5.7218,8.0571,9.89148040,8.88843031,3.70788693,
56.3300,-3.0256,-5.7218,8.0571,9.89148040,8.88843031,3.70788693,
56.3320,-3.0256,-5.7218,8.0571,9.89148040,8.88843031,3.70788693,
56.3330,-3.3292,-6.5839,-1.6403,9.89148040,8.88843031,3.70788693,
56.3400,-3.3292,-6.5839,-1.6403,9.89148040,8.88843031,3.70788693,
56.3420,-3.3292,-6.5839,-1.6403,9.89148040,8.88843031,3.70788693,
56.3500,-3.3292,-6.5839,-1.6403,9.89148040,8.88843031,3.70788693,
56.3530,-3.3292,-6.5839,-1.6403,9.89148040,8.88843031,3.70788693,
56.3540,-3.7187,-6.5948,-7.1304,9.89148040,8.88843031,3.70788693,
56.3600,-3.7187,-6.5948,-7.1304,9.89148040,8.88843031,3.70788693,
56.3620,-3.7187,-6.5948,-7.1304,9.89148040,8.88843031,3.70788693,
56.3710,-3.7187,-6.5948,-7.1304,9.89148040,8.88843031,3.70788693,
56.3720,-3.7187,-6.5948,-7.1304,9.89148040,8.88843031,3.70788693,
56.3730,-4.1231,-8.8526,-7.9672,9.89148040,8.88843031,3.70788693,
56.3800,-4.1231,-8.8526,-7.9672,9.89148040,8.88843031,3.70788693,
56.3840,-4.1231,-8.8526,-7.9672,9.89148040,8.88843031,3.70788693,
56.3900,-4.1231,-8.8526,-7.9672,9.89148040,8.88843031,3.70788693,
56.3940,-4.1231,-8.8526,-7.9672,9.89148040,8.88843031,3.70788693,
56.3960,-4.2182,-10.7996,-8.5676,9.89148040,8.88843031,3.70788693,
56.4000,-4.2182,-10.7996,-8.5676,9.89148040,8.88843031,3.70788693,
56.4020,-4.2182,-10.7996,-8.5676,9.89148040,8.88843031,3.70788693,
56.4220,-4.2182,-10.7996,-8.5676,9.89148040,8.88843031,3.70788693,
56.4240,-4.2182,-10.7996,-8.5676,9.89148040,8.88843031,3.70788693,
56.4260,-3.5372,-10.6932,-10.1553,9.89148040,8.88843031,3.70788693,
56.4290,-3.5372,-10.6932,-10.1553,9.89148040,8.88843031,3.70788693,
56.4310,-3.5372,-10.6932,-10.1553,9.89148040,8.88843031,3.70788693,
56.4340,-3.5372,-10.6932,-10.1553,9.89148040,8.88843031,3.70788693,
56.4350,-3.5372,-10.6932,-10.1553,9.89148040,8.88843031,3.70788693,
56.4350,-3.1067,-8.7435,-12.8383,9.89148040,8.88843031,3.70788693,
56.4440,-3.1067,-8.7435,-12.8383,9.89148040,8.88843031,3.70788693,
56.4460,-3.1067,-8.7435,-12.8383,9.89148040,8.88843031,3.70788693,
56.4870,-3.1067,-8.7435,-12.8383,9.89148040,8.88843031,3.70788693,
56.4890,-3.1067,-8.7435,-12.8383,9.89148040,8.88843031,3.70788693,
56.4900,-3.3887,-5.8540,-15.3325,9.89148040,8.88843031,3.70788693,
56.4930,-3.3887,-5.8540,-15.3325,9.89148040,8.88843031,3.70788693,
56.4940,-3.3887,-5.8540,-15.3325,9.89148040,8.88843031,3.70788693,
56.4950,-3.3887,-5.8540,-15.3325,9.89148040,8.88843031,3.70788693,
56.4960,-3.3887,-5.8540,-15.3325,9.89148040,8.88843031,3.70788693,
56.4960,-5.6443,-4.6509,-13.8916,9.89148040,8.88843031,3.70788693,
56.4980,-5.6443,-4.6509,-13.8916,9.89148040,8.88843031,3.70788693,
56.4990,-5.6443,-4.6509,-13.8916,9.89148040,8.88843031,3.70788693,
56.5000,-5.6443,-4.6509,-13.8916,9.89148040,8.88843031,3.70788693,
56.5010,-5.6443,-4.6509,-13.8916,9.89148040,8.88843031,3.70788693,
56.5030,-9.1791,-3.8068,-7.1555,9.89148040,8.88843031,3.70788693,
56.5040,-9.1791,-3.8068,-7.1555,9.89148040,8.88843031,3.70788693,
56.5050,-9.1791,-3.8068,-7.1555,9.89148040,8.88843031,3.70788693,
